ACCELEROMETER X (m/s²),ACCELEROMETER Y (m/s²),ACCELEROMETER Z (m/s²),GRAVITY X (m/s²),GRAVITY Y (m/s²),GRAVITY Z (m/s²),LINEAR ACCELERATION X (m/s²),LINEAR ACCELERATION Y (m/s²),LINEAR ACCELERATION Z (m/s²),GYROSCOPE X (rad/s),GYROSCOPE Y (rad/s),GYROSCOPE Z (rad/s),LIGHT (lux),MAGNETIC FIELD X (μT),MAGNETIC FIELD Y (μT),MAGNETIC FIELD Z (μT),ORIENTATION Z (azimuth °),ORIENTATION X (pitch °),ORIENTATION Y (roll °),PROXIMITY (i),SOUND LEVEL (dB),LOCATION Latitude : ,LOCATION Longitude : ,LOCATION Altitude ( m),LOCATION Altitude-google ( m),LOCATION Speed ( Kmh),LOCATION Accuracy ( m),LOCATION ORIENTATION (°),Satellites in range,Time since start in ms ,YYYY-MO-DD HH-MI-SS_SSS
-0.0087,2.0688,9.523,0.0046,2.0987,9.5794,0.049,0.0143,0.0617,-0.0333,0.0445,0.0031,228,-23.52,-21.57,-8.14,129.49,-12.36,-0.03,2,37.077,12.925628,77.68656,0,2909.56913139105,0,78.49677,0,0 / 27,15,2018-08-07 16:59:45:228
-0.6563,1.1225,9.4266,-0.6766,1.2542,9.7026,0.0049,-0.1107,-0.1708,-0.0738,0.0418,0.0099,284,-21.46,-21.37,-11.82,131.75,-7.61,3.85,2,38.277,12.925628,77.68656,0,2909.56913139105,0,78.49677,0,0 / 27,515,2018-08-07 16:59:45:728
-0.6378,1.1351,9.435,-0.6245,1.1955,9.7134,-0.0339,-0.0622,-0.1327,0.016,0.0024,0.0195,320,-22.67,-22.3,-10.91,131.15,-7,3.68,2,35.972,12.925628,77.68656,0,2909.56913139105,0,78.49677,0,0 / 27,1015,2018-08-07 16:59:46:228
-0.6665,0.9322,9.3087,-0.5301,0.9909,9.742,-0.1432,-0.0933,0.691,-0.0056,0.115,0.0164,368,-23.27,-22.5,-10.61,131.58,-5.8,3.11,2,37.744,12.925628,77.68656,0,2909.56913139105,0,78.49677,0,0 / 27,1515,2018-08-07 16:59:46:728
-1.7487,0.6796,8.8197,-0.7627,1.3017,9.6899,-0.7067,-0.3673,-1.0202,0.6169,0.2453,0.1436,416,-22.4,-23.73,-7.79,136,-5.5,3.62,2,39.119,12.925628,77.68656,0,2909.56913139105,0,78.49677,0,0 / 27,2015,2018-08-07 16:59:47:228
-0.8987,1.3997,9.6654,-1.2699,1.2553,9.6427,0.4766,0.1608,0.1557,0.0549,0.2385,-0.1964,400,-22.05,-21.62,-10.28,132.24,-7.24,6.64,2,37.895,12.925628,77.68656,0,2909.56913139105,0,78.49677,0,0 / 27,2515,2018-08-07 16:59:47:728
-0.9221,1.863,9.5325,-0.3242,1.4504,9.6934,-0.2768,0.5197,-0.051,0.0748,-0.2378,-0.2767,320,-18.25,-23.5,-9.57,139.37,-8.51,1.92,2,49.021,12.925628,77.68656,0,2909.56913139105,0,78.49677,0,0 / 27,3015,2018-08-07 16:59:48:228
-0.3971,1.4924,10.0395,-0.2831,1.4993,9.6872,-0.0587,-0.0204,0.2634,-0.1413,0.1641,0.0954,312,-19.44,-23.73,-9.28,139.3,-9.28,1.16,2,45.121,12.925628,77.68656,0,2909.56913139105,0,78.49677,0,0 / 27,3515,2018-08-07 16:59:48:728
-0.7575,1.3542,9.6744,-0.6754,1.457,9.6743,0.1005,-0.0915,-0.1531,0.0219,0.0253,0.0535,332,-20.03,-23.2,-10.84,135.82,-8.54,3.99,2,47.507,12.925628,77.68656,0,2909.56913139105,0,78.49677,0,0 / 27,4015,2018-08-07 16:59:49:228
-1.2507,1.1746,9.1477,-0.7478,1.3885,9.679,-0.1827,0.0032,0.0618,-0.2971,0.2334,0.208,356,-20.92,-23.22,-11.48,134.55,-8.14,4.42,2,52.598,12.925628,77.68656,0,2909.56913139105,0,78.49677,0,0 / 27,4515,2018-08-07 16:59:49:728
-1.5703,0.2062,9.2632,-1.4815,0.4524,9.6835,-0.0929,-0.2505,-0.3877,-0.0987,0.0633,0.061,432,-23.54,-21.26,-12.79,128.61,-2.97,8.48,2,42.381,12.925628,77.68656,0,2909.56913139105,0,78.49677,0,0 / 27,5015,2018-08-07 16:59:50:228
-1.2495,-0.1099,9.6535,-0.9335,0.0307,9.7621,0.1159,-0.0657,0.3959,-0.0214,0.0708,-0.6682,436,-22.91,-20.26,-11.54,129.72,-0.18,5.46,2,45.499,12.925628,77.68656,0,2909.56913139105,0,78.49677,0,0 / 27,5515,2018-08-07 16:59:50:728
-1.2662,-0.1757,9.6702,-0.9646,-0.1538,9.7579,-0.2739,0.0331,-0.0839,-0.0822,0.058,-0.2307,400,-20.06,-24.04,-11.15,138.98,0.54,5.43,2,50.733,12.925628,77.68656,0,2909.56913139105,0,78.49677,0,0 / 27,6015,2018-08-07 16:59:51:228
-0.9646,-0.3762,9.8085,-0.9508,-0.2434,9.7574,0.0016,-0.0801,0.0271,0.0111,0.0063,-0.0352,404,-17.37,-23.21,-12.34,142.12,1.42,5.57,2,46.769,12.925628,77.68656,0,2909.56913139105,0,78.49677,0,0 / 27,6515,2018-08-07 16:59:51:728
-2.4651,0.8891,6.3489,-1.9967,1.3816,9.5013,0.6048,-0.2111,-2.3518,0.7267,0.6623,-0.3557,360,-15.1,-27.29,-8.54,148.17,-5.86,9.4,2,45.725,12.925628,77.68656,0,2909.56913139105,0,78.49677,0,0 / 27,7015,2018-08-07 16:59:52:228
-0.2708,0.2157,10.319,-0.8263,-0.6697,9.7488,0.4064,0.8803,0.5342,-0.2693,-0.0479,0.3589,400,-19.12,-21.69,-14.55,138.3,3.19,4.97,2,52.655,12.925628,77.68656,0,2909.56913139105,0,78.49677,0,0 / 27,7515,2018-08-07 16:59:52:728
-2.3346,-2.3149,9.6337,-2.5348,-1.3615,9.375,0.5227,-0.7551,-0.2498,-0.1123,0.4899,0.1556,268,-18.41,-16.92,-20.45,130.45,7.66,13.41,2,52.789,12.925628,77.68656,0,2909.56913139105,0,78.49677,0,0 / 27,8015,2018-08-07 16:59:53:228
-2.6585,-1.6607,9.3979,-3.1155,-1.7192,9.1383,0.2359,0.1148,0.2552,0.0274,-0.0944,0.2291,108,277.43,-27.15,-78.05,256.89,10.1,18.83,2,44.566,12.925628,77.68656,0,2909.56913139105,0,78.49677,0,0 / 27,8515,2018-08-07 16:59:53:728
-3.0619,-2.1737,9.3314,-3.1919,-2.1813,9.0124,0.1044,0.0872,0.069,-0.2663,0.0315,-0.0004,92,1170.6,-38.32,-737.72,253.03,12,19.34,2,42.304,12.925628,77.68656,0,2909.56913139105,0,78.49677,0,0 / 27,9015,2018-08-07 16:59:54:228
-3.2253,-2.7758,9.0429,-3.3718,-2.7721,8.7816,0.0429,0.0791,0.0973,-0.1569,-0.1263,0.1295,80,1847.7,-236.17,-196.76,254.32,16.09,21.27,2,36.562,12.925628,77.68656,0,2909.56913139105,0,78.49677,0,0 / 27,9515,2018-08-07 16:59:54:728
-3.3839,-2.8057,8.8729,-3.3712,-2.7894,8.7764,0.0174,0.0273,0.0645,0.0072,-0.0518,-0.015,84,651.5,-1108.37,-342.65,201.67,16.53,21.01,2,40.966,12.925628,77.68656,0,2909.56913139105,0,78.49677,0,0 / 27,10016,2018-08-07 16:59:55:229
-2.9111,-2.4275,9.1555,-2.9361,-2.4655,9.0262,0.0341,0.0409,0.1181,0.026,-0.0659,0.0175,92,651.01,-839.34,-360.85,208,14.67,18.24,2,49.72,12.925628,77.68656,0,2909.56913139105,0,78.49677,0,0 / 27,10516,2018-08-07 16:59:55:729
-2.027,-0.6905,9.3889,-1.4576,-0.4949,9.6851,-0.4765,-0.2381,-0.2896,0.5739,0.1434,-0.9448,268,5.96,-38.16,-44.55,178.91,2.89,8.56,2,45.695,12.925628,77.68656,0,2909.56913139105,0,78.49677,0,0 / 27,11015,2018-08-07 16:59:56:228
-0.9586,-0.077,9.6098,-0.7707,-0.0992,9.7758,-0.2717,-0.016,-0.6833,-0.0356,-0.1354,-0.1231,252,10.06,-32.74,-33.05,192.09,0.42,4.94,2,42.624,12.925628,77.68656,0,2909.56913139105,0,78.49677,0,0 / 27,11516,2018-08-07 16:59:56:729
-1.186,3.9812,10.3029,-0.6966,4.0595,8.8997,-0.5613,-0.3188,1.071,1.6132,0.3996,1.3093,172,2.23,-30.69,-16.83,181.47,-18.64,4.66,2,38.353,12.925628,77.68656,0,2909.56913139105,0,78.49677,0,0 / 27,12016,2018-08-07 16:59:57:229
1.6721,5.8499,2.8892,1.8794,8.0196,5.322,-0.5894,-2.6539,-1.9169,1.3531,-0.0292,0.9393,44,-7.24,-13.84,-5.39,114.95,-54.86,-19.45,2,42.849,12.925628,77.68656,0,2909.56913139105,0,78.49677,0,0 / 27,12515,2018-08-07 16:59:57:728
2.0635,6.7902,5.7485,2.2569,6.9836,6.5043,-0.0501,-0.0743,-0.3507,-0.3852,0.1947,-0.2762,48,-8.58,-17.67,-9.41,128.9,-45.41,-19.14,2,42.593,12.925628,77.68656,0,2909.56913139105,0,78.49677,0,0 / 27,13016,2018-08-07 16:59:58:229
0.7126,4.4445,7.8093,0.5067,4.6793,8.6034,0.2392,-0.2126,-0.7409,-0.0094,-0.382,0.0138,320,-7.3,-22.42,-18.64,148.04,-28.52,-2,2,44.277,12.925628,77.68656,0,2909.56913139105,0,78.49677,0,0 / 27,13515,2018-08-07 16:59:58:728
2.9093,5.1586,9.1118,1.0626,4.2109,8.7926,-0.824,-0.3913,1.3791,0.5989,-0.9397,0.4969,460,-8.2,-23.21,-16.17,156.02,-25.43,-6.89,2,47.98,12.925628,77.68656,0,2909.56913139105,0,78.49677,0,0 / 27,14015,2018-08-07 16:59:59:228
0.2038,4.5534,8.3301,0.163,4.5194,8.7017,-0.1751,-0.1506,0.1481,0.2802,0.0899,-0.002,200,-7.47,-27.71,-17.67,158.01,-27.44,-1.07,2,44.164,12.925628,77.68656,0,2909.56913139105,0,78.49677,0,0 / 27,14515,2018-08-07 16:59:59:728
0.032,4.4978,7.6333,-0.3941,5.3228,8.2269,0.1708,-0.7959,-0.3056,1.7073,-0.23,0.1761,196,-3.3,-26.4,-21.31,162.42,-27.03,3.7,2,40.224,12.925628,77.68656,0,2909.56913139105,0,78.49677,0,0 / 27,15015,2018-08-07 17:00:00:228
-0.533,4.7408,8.2163,-0.4571,4.6835,8.6038,-0.1767,-0.1871,0.1263,0.5819,-0.0407,-0.0162,188,-2.75,-28.09,-20.66,164.34,-28.53,3.04,2,47.531,12.925628,77.68656,0,2909.56913139105,0,78.49677,0,0 / 27,15515,2018-08-07 17:00:00:728
-0.3379,3.9621,9.5242,-0.2143,4.1908,8.8635,0.0835,0.1727,-0.5601,-0.4427,0.2517,0.1642,168,-3.07,-28.62,-20.36,169.01,-26.77,0.81,2,40.491,12.925628,77.68656,0,2909.56913139105,0,78.49677,0,0 / 27,16015,2018-08-07 17:00:01:228
-0.351,4.1907,8.6766,-0.3631,4.2406,8.8349,0.0562,-0.0223,-0.1236,0.0773,0.0992,-0.0114,196,-3.97,-29.35,-19.75,165.15,-25.35,2,2,41.052,12.925628,77.68656,0,2909.56913139105,0,78.49677,0,0 / 27,16515,2018-08-07 17:00:01:728
-0.7928,4.423,8.2588,-0.7896,4.5055,8.6745,0.0569,-0.024,-0.3619,0.0396,0.3268,-0.0233,148,-4.88,-29.69,-21.01,159.47,-27.21,4.03,2,38.92,12.925628,77.68656,0,2909.56913139105,0,78.49677,0,0 / 27,17015,2018-08-07 17:00:02:228
-0.9322,3.9501,8.8909,-0.8923,3.922,8.9438,-0.1982,-0.0228,0.1028,-0.0589,-0.2597,0.0523,216,-4.56,-28.6,-22.86,157.62,-23.57,5.7,2,42.821,12.925628,77.68656,0,2909.56913139105,0,78.49677,0,0 / 27,17516,2018-08-07 17:00:02:729
-0.357,2.9691,9.2201,-0.2183,3.0826,9.307,-0.1671,-0.0824,0.0664,-0.0454,-0.2139,-0.0434,588,-5.8,-30.01,-22.88,162.23,-18.49,2.01,2,44.755,12.925628,77.68656,0,2909.56913139105,0,78.49677,0,0 / 27,18015,2018-08-07 17:00:03:228
-0.3469,3.1852,8.9783,-0.4623,3.2823,9.2295,0.1656,-0.0772,-0.0136,-0.0754,0.2133,0.0434,520,-6.98,-29.86,-23.83,158.09,-19.55,2.87,2,38.639,12.925628,77.68656,0,2909.56913139105,0,78.49677,0,0 / 27,18515,2018-08-07 17:00:03:728
-0.6114,3.269,9.42,-0.4804,3.263,9.2354,-0.1005,0.1429,0.1169,0.0368,-0.1409,-0.0846,544,-4.86,-28.02,-25.66,160.44,-19.44,2.98,2,41.376,12.925628,77.68656,0,2909.56913139105,0,78.49677,0,0 / 27,19016,2018-08-07 17:00:04:229
-0.9322,2.7398,9.3721,-1.0091,2.8923,9.3159,0.0758,-0.0754,0.0946,-0.2121,0.1748,-0.07,596,-4.91,-29.32,-27.51,158.17,-17.91,5.54,2,38.559,12.925628,77.68656,0,2909.56913139105,0,78.49677,0,0 / 27,19517,2018-08-07 17:00:04:730
0.6761,2.5459,8.6114,-0.2413,2.2086,9.5517,-0.2825,-1.1919,0.4866,0.3115,-0.932,-0.0791,280,0.33,-33.1,-23.97,178.7,-13.02,1.45,2,42.977,12.925628,77.68656,0,2909.56913139105,0,78.49677,0,0 / 27,20016,2018-08-07 17:00:05:229
-0.7826,1.0603,6.9229,-0.3099,1.8759,9.6206,0.6975,-0.7554,0.159,0.187,-0.4152,-1.0423,260,15.1,-34.82,-24.27,204.92,-10.62,2.66,2,50.778,12.925628,77.68656,0,2909.56913139105,0,78.49677,0,0 / 27,20515,2018-08-07 17:00:05:728
-3.1708,-0.4002,10.3172,-1.9463,-0.1283,9.6107,-0.5085,-0.5074,0.7818,-0.2947,0.2945,-0.213,220,142.37,-25.95,-58.24,258.89,-0.43,10.41,2,54.791,12.925628,77.68656,0,2909.56913139105,0,78.49677,0,0 / 27,21016,2018-08-07 17:00:06:229
-0.888,-1.3363,9.5272,-0.8349,-1.0961,9.7094,-0.5481,0.0671,0.5805,0.1563,-0.3005,0.0392,148,235.2,-36.53,-52.23,258.63,6.98,5.89,2,55.376,12.925628,77.68656,0,2909.56913139105,0,78.49677,0,0 / 27,21516,2018-08-07 17:00:06:729
-1.347,-0.9802,9.3213,-0.8157,-0.9612,9.7253,-0.421,0.0114,0.253,-0.033,0.0328,-0.1148,208,266.65,-66.51,-85.09,253.41,5.62,4.79,2,49.677,12.925628,77.68656,0,2909.56913139105,0,78.49677,0,0 / 27,22015,2018-08-07 17:00:07:228
-1.3806,-1.7667,9.6894,-1.4141,-1.5209,9.5842,-0.177,-0.1689,0.0138,-0.0655,0.0445,-0.0139,172,837.28,-6.14,34.79,268.71,8.68,8.23,2,43.773,12.925628,77.68656,0,2909.56913139105,0,78.49677,0,0 / 27,22516,2018-08-07 17:00:07:729
-1.6727,-1.875,9.5721,-1.4211,-1.3476,9.6091,-0.2522,-0.6638,-0.0632,0.1314,-0.1608,0.4761,208,93.18,-21.68,-28.65,252.54,7.9,8.41,2,44.555,12.925628,77.68656,0,2909.56913139105,0,78.49677,0,0 / 27,23015,2018-08-07 17:00:08:228
-1.4787,-1.4716,9.5361,-1.2599,-1.2696,9.6422,-0.2387,0.0191,-0.1274,0.0191,-0.0423,0.0466,256,43.05,-20.55,-36.49,235.43,7.44,7.44,2,42.159,12.925628,77.68656,0,2909.56913139105,0,78.49677,0,0 / 27,23516,2018-08-07 17:00:08:729
-1.7379,-1.6404,9.265,-1.5484,-1.7314,9.5276,-0.2927,0.1686,-0.1288,-0.0978,0.1284,-0.0821,208,50.38,-12.84,-40.43,244.29,9.81,8.8,2,48.29,12.925628,77.68656,0,2909.56913139105,0,78.49677,0,0 / 27,24015,2018-08-07 17:00:09:228
-2.4771,-2.5585,10.8727,-2.3133,-2.1176,9.2917,-0.216,-0.1837,1.0828,0.0237,0.0305,0.0086,96,228.93,76.18,-104.61,281.56,12.47,13.98,2,35.958,12.925628,77.68656,0,2909.56913139105,0,78.49677,0,0 / 27,24516,2018-08-07 17:00:09:729
-1.6912,-1.3794,9.7744,-1.5749,-1.3155,9.5896,-0.152,0.0226,0.4644,-0.071,-0.0644,0.2352,268,29.74,-29.34,-33.6,215.41,7.71,9.33,2,39.948,12.925628,77.68656,0,2909.56913139105,0,78.49677,0,0 / 27,25015,2018-08-07 17:00:10:228
-1.0777,-0.5755,9.5954,-0.706,-0.3529,9.7748,-0.325,-0.2226,-0.1696,0.159,-0.0565,0.5972,608,21.31,-33.62,-32.82,207.48,2.73,4.21,2,39.656,12.925628,77.68656,0,2909.56913139105,0,78.49677,0,0 / 27,25516,2018-08-07 17:00:10:729
-0.2762,-0.0925,9.7989,-1.0895,0.0493,9.7458,1.0658,-0.4105,-0.3069,-0.2256,-0.2053,1.7791,864,0.91,-32.05,-29.84,175.01,-0.36,7.22,2,36.35,12.925628,77.68656,0,2909.56913139105,0,78.49677,0,0 / 27,26015,2018-08-07 17:00:11:228
-0.3726,0.278,10.4777,-0.3983,0.6363,9.7779,0.091,-0.0416,0.839,0.4379,0.0582,0.341,652,-12.05,-20.29,-28.65,143.97,-3.72,2.33,2,44.513,12.925628,77.68656,0,2909.56913139105,0,78.49677,0,0 / 27,26515,2018-08-07 17:00:11:728
1.0711,1.4865,9.4745,-0.4851,1.0778,9.7352,1.3689,0.3945,-0.2455,-0.286,-0.0942,-0.0943,328,-13.03,-23.42,-27.41,143.32,-7.27,3.28,2,44.188,12.925628,77.68656,0,2909.56913139105,0,78.49677,0,0 / 27,27015,2018-08-07 17:00:12:228
-0.0182,1.0747,9.4966,-0.9701,1.1224,9.6938,-1.3255,0.3432,1.0518,0.1327,0.4022,0.4109,352,-13.02,-22.66,-29.89,140.88,-6.57,5.71,2,44.866,12.925628,77.68656,0,2909.56913139105,0,78.49677,0,0 / 27,27515,2018-08-07 17:00:12:728
-0.794,1.6092,9.2141,-0.1771,1.6472,9.6657,-0.5635,-0.0285,-0.5049,0.0068,0.3237,0.1176,280,-11.29,-24.91,-25.82,151.59,-9.64,-0.05,2,45.899,12.925628,77.68656,0,2909.56913139105,0,78.49677,0,0 / 27,28015,2018-08-07 17:00:13:228
-0.8101,2.024,9.0597,-0.1036,2.5639,9.465,0.2391,-0.0663,-0.6402,-0.0619,0.0163,-0.4345,224,-12.69,-22.64,-24.62,139.95,-15.37,0.19,2,45.173,12.925628,77.68656,0,2909.56913139105,0,78.49677,0,0 / 27,28516,2018-08-07 17:00:13:729
-0.3648,0.7311,10.2664,-0.7879,0.5978,9.7567,0.7886,0.3874,0.5686,-0.232,-0.0779,0.3053,572,-11.85,-23.11,-30.17,145.85,-3.49,4.62,2,49.355,12.925628,77.68656,0,2909.56913139105,0,78.49677,0,0 / 27,29015,2018-08-07 17:00:14:228
-0.7102,0.2104,11.4593,-1.1956,0.313,9.7285,0.0831,0.1291,0.8279,0.1497,-0.1157,0.1752,716,-11.45,-19.09,-33.6,140.09,-1.23,7.44,2,40.233,12.925628,77.68656,0,2909.56913139105,0,78.49677,0,0 / 27,29515,2018-08-07 17:00:14:728
-2.2467,1.918,9.3871,-0.4979,1.3082,9.7062,-1.613,0.7406,-0.2381,-0.371,-1.0336,-0.584,644,-7.26,-28.59,-27.25,161.61,-7.67,2.94,2,37.007,12.925628,77.68656,0,2909.56913139105,0,78.49677,0,0 / 27,30015,2018-08-07 17:00:15:228
-1.2926,0.77,12.4571,-2.7021,0.8429,9.3893,-1.4534,-1.3355,2.4696,-0.8138,0.2451,-1.6798,612,1.75,-34.48,-26.71,170.63,-9.29,14.5,2,50.288,12.925628,77.68656,0,2909.56913139105,0,78.49677,0,0 / 27,30516,2018-08-07 17:00:15:729
0.0123,0.1254,9.9653,-1.3293,0.1969,9.7141,1.3369,-0.0293,0.3085,-0.2126,-1.0549,-0.6827,588,5.89,-34.23,-29.1,180.18,-2.27,11.49,2,51.687,12.925628,77.68656,0,2909.56913139105,0,78.49677,0,0 / 27,31015,2018-08-07 17:00:16:228
-0.703,0.1152,8.6916,0.1752,0.8642,9.7669,-0.6673,-0.6252,-0.8639,1.0605,0.0148,-1.7341,392,19.77,-36.98,-24.77,209.54,-1.34,-1.48,2,45.557,12.925628,77.68656,0,2909.56913139105,0,78.49677,0,0 / 27,31516,2018-08-07 17:00:16:729
0.1194,-0.2601,9.8438,0.8541,1.2685,9.6867,-0.9058,-1.6687,0.8467,0.0001,-0.0226,-1.0378,388,34.15,-32.07,-26.68,231.68,-7.43,-5.04,2,46.161,12.925628,77.68656,0,2909.56913139105,0,78.49677,0,0 / 27,32015,2018-08-07 17:00:17:228
-0.4546,2.1161,8.6263,0.1096,1.9126,9.6177,-0.0549,0.1504,-1.163,0.0934,0.2922,0.0127,400,36.93,-29.17,-23.25,237.12,-10.89,-1.65,2,34.02,12.925628,77.68656,0,2909.56913139105,0,78.49677,0,0 / 27,32515,2018-08-07 17:00:17:728
-1.21,-0.5294,10.2508,-0.0176,1.1702,9.7366,-1.049,-1.5983,-0.1702,-0.3827,0.0672,-0.0329,572,34.25,-28.46,-28.26,234.24,-6.85,0.1,2,44.817,12.925628,77.68656,0,2909.56913139105,0,78.49677,0,0 / 27,33015,2018-08-07 17:00:18:228
-1.2441,-1.1346,10.0066,-0.8556,-0.7229,9.7425,-0.0381,-0.2651,0.343,-0.2276,0.1806,-0.2426,312,36.67,-26.77,-30.39,229.37,4.23,5.02,2,36.603,12.925628,77.68656,0,2909.56913139105,0,78.49677,0,0 / 27,33515,2018-08-07 17:00:18:728
-1.0723,-1.9714,9.8103,-1.1618,-1.839,9.5624,0.0761,-0.104,0.1653,-0.2421,0.1695,0.0161,276,52.29,-28.85,-34.69,233.35,9.98,6.33,2,37.352,12.925628,77.68656,0,2909.56913139105,0,78.49677,0,0 / 27,34015,2018-08-07 17:00:19:228
-0.5378,-2.0965,9.5691,-0.5996,-1.7797,9.6251,-0.1737,-0.0026,0.0451,0.0222,-0.0035,-0.0391,284,67.77,-27.23,-32.53,243.17,10.46,3.56,2,33.509,12.925628,77.68656,0,2909.56913139105,0,78.49677,0,0 / 27,34515,2018-08-07 17:00:19:728
-0.7641,-1.6368,9.6666,-0.4467,-1.3954,9.6966,-0.1746,-0.2066,-0.0143,-0.0001,0.0755,-0.1178,296,30.69,-11.01,-22.59,244.47,8.14,2.42,2,37.334,12.925628,77.68656,0,2909.56913139105,0,78.49677,0,0 / 27,35015,2018-08-07 17:00:20:228
-0.5103,-1.881,9.6265,-0.4309,-1.708,9.6471,-0.3863,-0.0858,-0.0496,0.0269,-0.0883,-0.1593,328,155.09,70.89,-34.91,292.18,10.09,2.92,2,44.916,12.925628,77.68656,0,2909.56913139105,0,78.49677,0,0 / 27,35516,2018-08-07 17:00:20:729
-0.5462,-1.6559,9.7379,-0.445,-1.6497,9.6567,-0.1246,-0.0466,0.0034,0.0049,-0.0012,0.0177,344,162.48,87.42,-72.95,294.51,9.67,2.54,2,47.067,12.925628,77.68656,0,2909.56913139105,0,78.49677,0,0 / 27,36015,2018-08-07 17:00:21:228
-0.4995,-1.6745,9.7337,-0.463,-1.6616,9.6538,-0.0552,-0.04,-0.0221,-0.0014,0.0132,-0.0114,352,161.91,89.82,-80.1,295.05,9.75,2.75,2,45.644,12.925628,77.68656,0,2909.56913139105,0,78.49677,0,0 / 27,36516,2018-08-07 17:00:21:729
-0.4169,-1.6643,9.7097,-0.434,-1.6593,9.6555,0.0103,-0.0004,-0.0048,0.0061,0.0027,0.0283,360,161.93,91.29,-83.83,295.15,9.77,2.56,2,47.971,12.925628,77.68656,0,2909.56913139105,0,78.49677,0,0 / 27,37015,2018-08-07 17:00:22:228
-0.463,-1.6392,9.6942,-0.4542,-1.6251,9.6604,0.0167,0.0086,-0.0062,0.0057,0.0074,0.0021,348,164.33,94.65,-96.49,295.66,9.54,2.69,2,44.003,12.925628,77.68656,0,2909.56913139105,0,78.49677,0,0 / 27,37515,2018-08-07 17:00:22:728
-0.6006,-1.6553,9.7456,-0.482,-1.5955,9.664,-0.0595,-0.0476,-0.0133,0.0047,-0.0102,0.0182,336,167.67,107,-141.7,296.79,9.36,2.86,2,44.695,12.925628,77.68656,0,2909.56913139105,0,78.49677,0,0 / 27,38015,2018-08-07 17:00:23:228
0.5186,-0.7132,10.6399,0.1117,-0.5911,9.7882,0.1312,-0.1448,1.0812,0.3711,-0.0008,-0.1071,324,32.51,-26,-33.88,229.31,4.73,-0.62,2,42.406,12.925628,77.68656,0,2909.56913139105,0,78.49677,0,0 / 27,38515,2018-08-07 17:00:23:728
-0.2128,0.5455,8.9394,-0.5121,1.2047,9.7189,0.1185,-0.8937,-1.2473,0.4295,-0.2371,-0.7435,472,43.05,-22.55,-26.57,245.14,-7.06,3.02,2,41.849,12.925628,77.68656,0,2909.56913139105,0,78.49677,0,0 / 27,39016,2018-08-07 17:00:24:229
0.1547,1.1716,9.7965,0.2182,1.3573,9.7098,-0.266,0.0386,-0.3938,-0.1455,-0.3484,-1.3556,476,50.42,-5.11,-27.49,268.73,-8.36,-0.78,2,42.15,12.925628,77.68656,0,2909.56913139105,0,78.49677,0,0 / 27,39515,2018-08-07 17:00:24:728
-0.0751,1.6672,8.7754,0.5608,1.6122,9.657,-0.6343,0.0497,-0.7134,0.0597,-0.0585,-0.6777,436,46.36,17.14,-30.22,293.8,-9.1,-3.56,2,46.192,12.925628,77.68656,0,2909.56913139105,0,78.49677,0,0 / 27,40015,2018-08-07 17:00:25:228
-0.7784,1.0663,9.7887,0.2844,1.8538,9.6256,-1.0943,-0.6403,-0.8223,-0.3564,-0.0017,-1.103,128,35.06,25.86,-32.38,311.1,-12.02,-2.58,2,42.726,12.925628,77.68656,0,2909.56913139105,0,78.49677,0,0 / 27,40517,2018-08-07 17:00:25:730
1.0412,0.436,9.2375,0.9213,1.0456,9.7071,-0.1966,-0.8444,2.2784,0.0356,-0.1144,-0.7252,48,19.82,31.43,-31.19,326.04,-6.12,-5.42,2,37.617,12.925628,77.68656,0,2909.56913139105,0,78.49677,0,0 / 27,41015,2018-08-07 17:00:26:228
0.5803,1.0489,10.0144,0.7994,0.9827,9.7245,-0.3272,-0.028,1.0343,-0.2402,-0.1444,0.0759,24,12.19,33.6,-29.81,339.09,-6.61,-4.22,2,39.035,12.925628,77.68656,0,2909.56913139105,0,78.49677,0,0 / 27,41516,2018-08-07 17:00:26:729
0.7317,-0.1057,9.1788,1.6857,1.5257,9.5394,-1.2269,-1.564,-0.7216,0.3745,0.0054,0.6687,24,18.97,33.18,-34.31,326.56,-8.95,-10.02,2,41.735,12.925628,77.68656,0,2909.56913139105,0,78.49677,0,0 / 27,42015,2018-08-07 17:00:27:228
1.7768,0.9544,10.8488,1.0492,1.2813,9.6658,-0.3665,0.0223,0.0726,-0.1008,-0.0384,0.4642,24,26.69,33.89,-35.4,321.05,-7.51,-6.19,2,42.916,12.925628,77.68656,0,2909.56913139105,0,78.49677,0,0 / 27,42516,2018-08-07 17:00:27:729
0.0141,1.326,9.6199,1.0369,1.2199,9.6751,-0.9864,0.0998,-0.0456,0.1805,0.0212,0.0821,20,22.59,35.39,-34.88,325.26,-6.55,-6.25,2,45.016,12.925628,77.68656,0,2909.56913139105,0,78.49677,0,0 / 27,43015,2018-08-07 17:00:28:228
1.1752,1.28,9.3051,0.9782,1.1846,9.6856,0.1704,-0.0034,-0.4054,-0.0447,-0.2089,-0.3804,20,17.84,35.18,-34.97,331.05,-6.94,-5.77,2,39.3,12.925628,77.68656,0,2909.56913139105,0,78.49677,0,0 / 19,43516,2018-08-07 17:00:28:729
0.0021,1.9456,9.7379,0.9234,2.0792,9.5391,-0.636,-0.2355,-0.493,0.1194,0.1214,-0.0839,20,15.99,33.68,-38.4,334.42,-12.24,-5.53,2,43.921,12.925628,77.68656,0,2909.56913139105,0,78.49677,0,0 / 19,44015,2018-08-07 17:00:29:228
0.3558,2.3831,9.4715,0.7163,2.2146,9.5264,-0.0043,0.1645,-0.1345,-0.037,-0.2611,-0.2632,20,15.68,32.98,-37.78,335.61,-13.1,-3.61,2,35.74,12.925628,77.68656,0,2909.56913139105,0,78.49677,0,0 / 19,44516,2018-08-07 17:00:29:729
1.0053,1.1866,10.0694,0.765,1.7219,9.6239,0.073,-0.5089,0.6381,-0.139,-0.1384,-0.5467,16,5.86,30.87,-32.71,346.82,-10.5,-4.41,2,43.555,12.925628,77.68656,0,2909.56913139105,0,78.49677,0,0 / 19,45015,2018-08-07 17:00:30:228
0.3133,1.3656,9.927,0.6489,1.6248,9.6493,-0.0196,-0.1709,-0.0217,-0.0997,0.1174,-0.2612,16,-0.74,28.77,-33.76,357.85,-9.54,-3.85,2,40.833,12.925628,77.68656,0,2909.56913139105,0,78.49677,0,0 / 19,45516,2018-08-07 17:00:30:729
-0.0476,1.1525,9.9761,0.3865,1.4483,9.6914,-0.4928,-0.2782,0.2522,0.0553,-0.0038,0.1389,16,-2.23,28.9,-34.72,1.06,-8.35,-2.25,2,35.209,12.925628,77.68656,0,2909.56913139105,0,78.49677,0,0 / 19,46015,2018-08-07 17:00:31:228
0.5492,1.7367,9.3434,0.5598,1.3817,9.6927,0.0598,0.2467,-0.4499,-0.0834,0.0685,0.3852,16,5.01,32.59,-34.59,349.43,-8.1,-3.31,2,38.986,12.925628,77.68656,0,2909.56913139105,0,78.49677,0,0 / 19,46515,2018-08-07 17:00:31:728
0.144,0.8041,10.0683,0.6894,1.1659,9.7127,0.1171,-0.2898,0.4973,-0.0186,0.0207,0.0049,16,10.42,35.27,-36.98,342.1,-6.93,-4.12,2,46.382,12.925628,77.68656,0,2909.56913139105,0,78.49677,0,0 / 19,47016,2018-08-07 17:00:32:229
1.1058,1.2488,10.3591,0.6942,1.5419,9.6598,0.2765,-0.3269,0.8425,-0.1077,-0.0562,-0.1842,12,11.22,32.41,-36.63,340.12,-9.42,-4,2,42.19,12.925628,77.68656,0,2909.56913139105,0,78.49677,0,0 / 19,47515,2018-08-07 17:00:32:728
1.2297,1.0555,9.031,0.6915,1.687,9.6357,0.6094,-0.5412,0.2119,0.2596,-0.088,-0.2479,12,4.91,30.52,-39.22,348.18,-9.91,-4.1,2,45.337,12.925628,77.68656,0,2909.56913139105,0,78.49677,0,0 / 19,48015,2018-08-07 17:00:33:228
0.1062,1.9066,9.6654,0.633,1.3542,9.692,-0.4993,0.5214,0.1023,-0.037,0.1423,0.0837,12,-1.05,28.83,-36.24,357.18,-8.03,-4.24,2,46.365,12.925628,77.68656,0,2909.56913139105,0,78.49677,0,0 / 19,48515,2018-08-07 17:00:33:728
-0.4133,0.9113,10.3615,-0.1258,0.9487,9.7598,-0.962,-0.1485,1.0789,-0.1075,0.0292,-0.127,12,-0.72,30.05,-37.17,2.53,-5.55,0.74,2,43.485,12.925628,77.68656,0,2909.56913139105,0,78.49677,0,0 / 19,49015,2018-08-07 17:00:34:228
-0.3295,1.1219,8.7592,0.4892,1.1548,9.7261,-1.2625,-0.1707,0.1201,0.0771,0.1253,-0.6913,12,-8.92,23.73,-35.74,13.42,-6.37,-3.7,2,42.829,12.925628,77.68656,0,2909.56913139105,0,78.49677,0,0 / 19,49515,2018-08-07 17:00:34:728
0.6198,1.939,9.5164,0.5221,1.3754,9.6957,-0.059,0.6391,-0.1814,-0.037,-0.096,0.0102,16,-12.64,18.07,-33.3,26.8,-8.13,-2.75,2,48.053,12.925628,77.68656,0,2909.56913139105,0,78.49677,0,0 / 19,50015,2018-08-07 17:00:35:228
-0.2864,1.3727,10.182,0.1153,1.5975,9.675,-0.1771,-0.2407,0.8015,-0.0837,0.3404,0.2611,12,-11.73,19.39,-36.07,23.7,-9.72,-1.72,2,41.667,12.925628,77.68656,0,2909.56913139105,0,78.49677,0,0 / 19,50515,2018-08-07 17:00:35:728
0.548,2.0395,8.7838,0.2877,1.9758,9.6012,0.3185,0.2605,-0.9955,0.2097,-0.3383,0.3495,12,-7.18,22.64,-36.63,11.1,-11.62,-1.72,2,37.748,12.925628,77.68656,0,2909.56913139105,0,78.49677,0,0 / 19,51016,2018-08-07 17:00:36:229
-0.8221,1.8624,9.4045,0.2342,1.9164,9.6147,-0.9722,-0.0531,-0.1721,-0.169,-0.0933,-0.5304,12,-10.92,17.66,-39.45,21.18,-11.8,-1.55,2,39.254,12.925628,77.68656,0,2909.56913139105,0,78.49677,0,0 / 19,51515,2018-08-07 17:00:36:728
0.864,2.0629,10.9421,0.4059,2.2258,9.5421,-0.0077,0.3707,0.3821,-0.0452,0.1018,0.5443,12,-10.01,18.2,-39.12,17.52,-13.32,-2.35,2,40.772,12.925628,77.68656,0,2909.56913139105,0,78.49677,0,0 / 19,52015,2018-08-07 17:00:37:228
-0.4319,2.1096,7.9386,0.2177,1.8769,9.6229,-0.2253,-0.5003,2.4302,-0.3288,0.2561,0.1441,12,-3.6,24.29,-40.9,5.58,-11.03,-1.3,2,34.504,12.925628,77.68656,0,2909.56913139105,0,78.49677,0,0 / 19,52515,2018-08-07 17:00:37:728
-1.0885,1.1088,12.0147,0.5406,1.3603,9.6968,-1.3273,-0.2277,2.3571,-0.3225,0.6108,-0.1439,12,-2.37,25.68,-40.26,356.68,-9.09,-5.52,2,37.002,12.925628,77.68656,0,2909.56913139105,0,78.49677,0,0 / 19,53015,2018-08-07 17:00:38:228
0.4887,1.7666,9.1992,-0.1324,2.0003,9.5996,0.5129,-0.3327,0.3486,0.3717,0.1196,0.4523,12,3.85,26.25,-44.78,354.43,-11.77,0.79,2,49.495,12.925628,77.68656,0,2909.56913139105,0,78.49677,0,0 / 19,53516,2018-08-07 17:00:38:729
0.4169,4.2284,6.7475,-0.3895,4.5908,8.657,0.3373,-0.4639,1.5317,0.0505,0.2621,0.3076,12,13.74,21.63,-51.66,344.82,-27.81,2.28,2,40.993,12.925628,77.68656,0,2909.56913139105,0,78.49677,0,0 / 19,54015,2018-08-07 17:00:39:228
-0.6623,3.1678,9.0615,0.4407,2.5569,9.4572,-0.9713,0.5808,-0.202,-0.9628,-0.1519,-1.1862,12,-3.43,21.39,-45.82,0.29,-18.13,-3.52,2,29.469,12.925628,77.68656,0,2909.56913139105,0,78.49677,0,0 / 19,54516,2018-08-07 17:00:39:729
1.1735,1.1662,9.1567,0.0818,1.8767,9.6251,0.8765,-0.6,-0.442,0.2523,0.0461,0.181,12,-7.98,17.76,-44.03,16.71,-10.22,-0.44,2,29.121,12.925628,77.68656,0,2909.56913139105,0,78.49677,0,0 / 19,55015,2018-08-07 17:00:40:228
1.1591,2.2879,9.5463,0.8974,1.7235,9.6122,0.4036,0.4748,-0.155,-0.1747,-0.1886,0.0544,12,-10.99,16.24,-42.84,16.52,-10.12,-5.33,2,28.447,12.925628,77.68656,0,2909.56913139105,0,78.49677,0,0 / 19,55516,2018-08-07 17:00:40:729
0.7096,0.4085,10.4783,1.2413,1.3802,9.6294,0.077,-1.3906,2.3151,-0.0793,0.513,-0.4944,12,-10.03,17.68,-38.81,8.47,-8.28,-9.38,2,35.411,12.925628,77.68656,0,2909.56913139105,0,78.49677,0,0 / 19,56015,2018-08-07 17:00:41:228
0.709,2.8152,9.4919,0.6259,2.1316,9.5517,-0.5649,0.7947,0.0991,0.276,0.1356,0.186,16,-11.45,11.37,-44.98,21.25,-12.55,-3.75,2,38.449,12.925628,77.68656,0,2909.56913139105,0,78.49677,0,0 / 19,56516,2018-08-07 17:00:41:729
-0.6749,2.249,9.3261,-0.1153,2.1613,9.5648,-0.081,0.0886,-1.1815,0.1964,0.1045,-0.681,20,-11.34,6.04,-47.41,35.56,-12.73,0.69,2,36.134,12.925628,77.68656,0,2909.56913139105,0,78.49677,0,0 / 19,57016,2018-08-07 17:00:42:229
-1.8486,1.4494,8.9729,-0.6702,2.5277,9.4515,-1.2052,-1.152,-0.6148,0.0302,0.1512,0.2973,24,-10.52,3.68,-46.76,41.68,-14.86,3.68,2,38.413,12.925628,77.68656,0,2909.56913139105,0,78.49677,0,0 / 19,57515,2018-08-07 17:00:42:728
0.6473,0.336,9.3697,1.8544,1.1008,9.5666,-0.3905,-1.1074,1.0748,0.2252,-0.834,0.1047,28,-9.22,15.22,-40.32,3.59,-6.44,-10.97,2,29.45,12.925628,77.68656,0,2909.56913139105,0,78.49677,0,0 / 19,58015,2018-08-07 17:00:43:228
-0.296,1.0687,7.8183,-0.0238,1.6086,9.6738,0.2249,-0.9401,0.1638,0.6412,-0.1561,0.6011,36,-0.02,16.6,-44.79,1.99,-7.31,1,2,31.502,12.925628,77.68656,0,2909.56913139105,0,78.49677,0,0 / 19,58516,2018-08-07 17:00:43:729
1.5565,1.0178,8.7646,-0.4577,2.3892,9.5001,1.4497,-0.3676,0.0779,0.8438,1.2786,0.937,28,23.82,39.99,-50.98,333.28,-11.18,-0.79,2,56.454,12.925628,77.68656,0,2909.56913139105,0,78.49677,0,0 / 19,59015,2018-08-07 17:00:44:228
-0.97,3.9268,8.6036,-0.9977,3.9551,8.9181,-0.2685,0.2302,-0.4648,-0.2531,0.1382,0.2719,120,12.03,23.93,-51.71,351.96,-24.51,6.33,2,37.381,12.925628,77.68656,0,2909.56913139105,0,78.49677,0,0 / 19,59515,2018-08-07 17:00:44:728
-0.0661,3.6861,8.8873,-0.1402,3.6212,9.1125,0.1445,-0.1098,0.2899,-0.0351,0.0457,-0.0583,76,12.86,18.78,-36.8,338.4,-21.67,0.88,2,32.878,12.925628,77.68656,0,2909.56913139105,0,78.49677,0,0 / 19,60016,2018-08-07 17:00:45:229
-0.3846,3.8543,8.8017,-0.463,3.8881,8.991,0.0814,0.0155,-0.134,0.0679,0.0448,-0.0317,84,16.11,18.02,-35.18,334.94,-23.12,2.75,2,31.728,12.925628,77.68656,0,2909.56913139105,0,78.49677,0,0 / 19,60517,2018-08-07 17:00:45:730
-0.3552,4.0249,8.8915,-0.5423,3.9401,8.9639,-0.0478,0.1657,-0.1854,0.0114,0.0134,-0.048,96,19.67,18.21,-36.35,330.47,-23.69,3.46,2,28.405,12.925628,77.68656,0,2909.56913139105,0,78.49677,0,0 / 19,61015,2018-08-07 17:00:46:228
-0.6886,4.0542,8.8508,-0.5131,4.011,8.9341,-0.093,-0.022,-0.0573,0.0453,0.0223,-0.0161,96,22.72,20.83,-34.76,328.35,-24.14,3.29,2,33.592,12.925628,77.68656,0,2909.56913139105,0,78.49677,0,0 / 19,61515,2018-08-07 17:00:46:728
-0.6922,4.0872,8.9723,-0.4615,4.053,8.918,-0.2154,0.1067,-0.1271,-0.0585,0.0427,0.1256,92,12.91,20.69,-38.36,342.63,-24.58,2.99,2,32.718,12.925628,77.68656,0,2909.56913139105,0,78.49677,0,0 / 19,62015,2018-08-07 17:00:47:228
-0.4462,4.0997,8.6599,-0.4928,4.1425,8.8751,0.0713,0.0124,-0.0662,0.0274,0.0509,0.0967,80,8.79,22.5,-42.49,350.26,-24.99,3.18,2,35.893,12.925628,77.68656,0,2909.56913139105,0,78.49677,0,0 / 19,62516,2018-08-07 17:00:47:729
-0.612,4.1763,8.8723,-0.7961,4.2273,8.8129,-0.025,0.0624,0.0842,-0.0182,0.2144,0.2836,64,20.05,36.94,-67.13,347.55,-25.54,5.16,2,30.282,12.925628,77.68656,0,2909.56913139105,0,78.49677,0,0 / 19,63015,2018-08-07 17:00:48:228
-0.8963,4.2236,8.8071,-1.0432,4.3372,8.7333,0.145,-0.0483,0.1648,-0.0257,0.1538,0.1865,56,57.62,46.41,-80.66,328.84,-26.27,6.62,2,40.229,12.925628,77.68656,0,2909.56913139105,0,78.49677,0,0 / 19,63516,2018-08-07 17:00:48:729
-0.7982,4.156,8.4396,-1.1863,4.4171,8.6748,0.3786,-0.2243,0.147,0.0425,0.0599,0.0892,48,82.47,9.61,-48.92,295.54,-26.61,7.77,2,31.085,12.925628,77.68656,0,2909.56913139105,0,78.49677,0,0 / 19,64015,2018-08-07 17:00:49:228
-1.019,4.5259,8.7903,-1.2241,4.4659,8.6445,0.2499,0.1132,0.0983,-0.0323,0.0775,0.1164,48,37.06,-14.4,-30.17,276.03,-27.09,8.06,2,31.003,12.925628,77.68656,0,2909.56913139105,0,78.49677,0,0 / 19,64515,2018-08-07 17:00:49:728
-1.1304,4.4367,8.7012,-1.3935,4.5749,8.5615,0.0826,0.0335,0.1575,-0.0388,0.0802,0.0953,44,6.93,-21.32,-23.3,203.65,-27.89,9.16,2,27.013,12.925628,77.68656,0,2909.56913139105,0,78.49677,0,0 / 19,65016,2018-08-07 17:00:50:229
-0.0159,4.0483,8.8993,-1.1713,4.5155,8.626,1.3706,-0.6533,0.7064,0.1105,-0.2027,-0.2259,44,17.79,-16.77,-18.47,249.5,-27.42,7.73,2,31.627,12.925628,77.68656,0,2909.56913139105,0,78.49677,0,0 / 19,65515,2018-08-07 17:00:50:728
-2.009,4.7905,8.4354,-2.0926,4.8431,8.2665,-0.6675,0.1157,0.4807,-0.0981,-0.0638,-0.0077,52,103.24,7.45,-37.33,291.79,-29.59,14.21,2,45.943,12.925628,77.68656,0,2909.56913139105,0,78.49677,0,0 / 19,66015,2018-08-07 17:00:51:228
-1.7552,4.7121,8.0649,-1.8353,4.9207,8.2819,0.0441,-0.133,-0.0649,0.0423,-0.0601,-0.0011,52,107.37,6.17,-34.14,289.11,-30.03,12.71,2,36.208,12.925628,77.68656,0,2909.56913139105,0,78.49677,0,0 / 19,66515,2018-08-07 17:00:51:728
-1.7469,4.8575,8.1559,-1.7831,4.9225,8.2922,0.0221,0.0079,-0.0036,0.0057,-0.0054,-0.0025,56,107.01,4.52,-36,288.93,-30.13,12.14,2,32.889,12.925628,77.68656,0,2909.56913139105,0,78.49677,0,0 / 19,67016,2018-08-07 17:00:52:229
-1.3614,4.8108,8.4109,-1.6395,4.9046,8.3323,0.1905,0.0227,0.1768,0.0862,-0.0477,-0.0318,56,91.4,10.88,-50.29,298.22,-29.74,11.23,2,29.537,12.925628,77.68656,0,2909.56913139105,0,78.49677,0,0 / 19,67515,2018-08-07 17:00:52:728
0.2182,4.1237,8.6024,-1.3341,4.9904,8.3359,0.3696,-0.1285,-0.0105,-0.0053,-0.1677,-0.0212,64,39.91,21.13,-81.76,336.99,-30.59,9.09,2,28.715,12.925628,77.68656,0,2909.56913139105,0,78.49677,0,0 / 19,68015,2018-08-07 17:00:53:228
-1.3997,4.0004,8.7125,-1.2295,4.3723,8.6915,-0.1303,-0.1945,-0.0721,0.0175,-0.4999,-1.0966,144,11.07,20.14,-45.21,353.03,-26.95,7.87,2,29.655,12.925628,77.68656,0,2909.56913139105,0,78.49677,0,0 / 19,68515,2018-08-07 17:00:53:728
-1.5793,2.0503,10.1095,-1.036,2.984,9.284,-0.5288,-0.8837,0.951,-0.2934,-0.6332,-1.919,208,-12.32,2.51,-44.31,44.58,-19.56,6.32,2,27.891,12.925628,77.68656,0,2909.56913139105,0,78.49677,0,0 / 19,69015,2018-08-07 17:00:54:228
-0.5294,0.0194,9.4122,-0.4268,0.66,9.7751,-0.339,-0.5623,-0.1882,0.0943,-0.0349,-1.7952,120,-12.64,-18.55,-36.42,139.13,-3.84,2.16,2,23.754,12.925628,77.68656,0,2909.56913139105,0,78.49677,0,0 / 19,69516,2018-08-07 17:00:54:729
-0.0332,-1.6469,11.0361,-0.5542,1.6547,9.6501,0.4759,-2.6897,-1.1013,0.0723,-0.5189,-1.8987,104,12.58,-38.13,-30.48,199.23,-9.71,3.29,2,29.162,12.925628,77.68656,0,2909.56913139105,0,78.49677,0,0 / 19,70015,2018-08-07 17:00:55:228
-1.5805,2.6405,3.3723,-1.1372,3.1683,9.2108,-0.2011,-1.2315,-5.472,1.0126,0.4775,-1.5342,104,35.66,-31.92,-23.87,235.51,-15.8,3.56,2,27.185,12.925628,77.68656,0,2909.56913139105,0,78.49677,0,0 / 19,70515,2018-08-07 17:00:55:728
-0.3241,0.1565,11.8675,-1.2921,1.4173,9.6173,0.8928,-0.9161,2.5814,0.7022,-0.5609,-1.1664,124,47.03,-18.44,-28.07,253.25,-8.31,7.65,2,30.645,12.925628,77.68656,0,2909.56913139105,0,78.49677,0,0 / 19,71018,2018-08-07 17:00:56:231
-0.8191,2.4226,10.498,-0.0482,2.2779,9.5383,-0.0802,0.0628,-0.4548,-0.2734,-0.2455,-1.0099,156,49.47,-4.84,-38.03,274.71,-13.43,0.29,2,33.623,12.925628,77.68656,0,2909.56913139105,0,78.49677,0,0 / 19,71516,2018-08-07 17:00:56:729
-0.4552,2.4531,9.6535,0.1077,3.0128,9.3317,-0.627,-0.4799,0.3597,0.0148,-0.1048,-0.6632,116,48.53,3.67,-40.59,287.91,-17.86,-1.1,2,25.817,12.925628,77.68656,0,2909.56913139105,0,78.49677,0,0 / 19,72016,2018-08-07 17:00:57:229
-0.3175,3.0517,8.2822,-0.4384,3.4807,9.1577,-0.5916,-0.5106,-0.2851,0.1503,-0.2334,0.4573,76,47.68,5.02,-41.86,293.92,-20.79,2.74,2,32.86,12.925628,77.68656,0,2909.56913139105,0,78.49677,0,0 / 19,72515,2018-08-07 17:00:57:728
0.032,3.6478,8.6419,-0.1266,3.981,8.9614,0.1372,-0.3876,-0.274,-0.0143,0.1806,0.4699,96,47.77,-1.99,-39.64,287.31,-24,0.92,2,32.782,12.925628,77.68656,0,2909.56913139105,0,78.49677,0,0 / 19,73015,2018-08-07 17:00:58:228
-0.5103,3.7532,9.0286,-0.408,3.8701,9.0015,-0.0199,-0.0375,0.1375,-0.0436,0.1105,-0.0017,80,49.17,-5.42,-35.87,282.39,-23.4,2.21,2,28.638,12.925628,77.68656,0,2909.56913139105,0,78.49677,0,0 / 19,73516,2018-08-07 17:00:58:729
-0.4301,2.3717,9.9563,-0.2822,2.5446,9.4666,-0.1069,-0.0412,0.4879,0.0389,0.3376,0.1464,92,48.85,-5.52,-38.66,275.16,-14.91,0.67,2,24.718,12.925628,77.68656,0,2909.56913139105,0,78.49677,0,0 / 19,74015,2018-08-07 17:00:59:228
0.0326,2.5309,9.3608,-0.1194,2.6352,9.4452,0.1855,-0.0941,0.0952,-0.0218,-0.0322,0.0322,92,49.38,-7.75,-37.08,272.83,-15.59,0.72,2,24.27,12.925628,77.68656,0,2909.56913139105,0,78.49677,0,0 / 19,74515,2018-08-07 17:00:59:728
0.1505,1.4033,10.006,-0.9685,1.6864,9.6119,1.0833,-0.2584,0.555,-0.4555,0.113,-0.4237,80,49.5,-4.39,-35.87,275.29,-11.63,5.24,2,30.407,12.925628,77.68656,0,2909.56913139105,0,78.49677,0,0 / 19,75016,2018-08-07 17:01:00:229
-0.7916,0.8951,10.5369,-0.3725,0.7635,9.7698,-0.0201,0.0372,0.6614,-0.2473,-0.124,-0.5645,88,47.28,10.31,-38.2,286.02,-4.47,2.18,2,30.042,12.925628,77.68656,0,2909.56913139105,0,78.49677,0,0 / 19,75515,2018-08-07 17:01:00:728
-0.551,1.5697,9.0034,-0.5387,1.8912,9.6075,0.0653,0.0139,-1.2105,0.0065,-0.2929,-0.5332,108,42.92,13.39,-39.86,297.21,-11.12,3.21,2,39.507,12.925628,77.68656,0,2909.56913139105,0,78.49677,0,0 / 19,76015,2018-08-07 17:01:01:228
-0.0949,1.1525,9.3985,-0.864,1.2933,9.6825,0.8855,-0.226,-0.0521,0.0359,-0.2323,-1.0556,88,33.48,24.32,-39.83,315.59,-7.81,5.5,2,38.409,12.925628,77.68656,0,2909.56913139105,0,78.49677,0,0 / 19,76515,2018-08-07 17:01:01:728
0.7383,0.9975,7.2102,0.5253,1.4758,9.6807,0.0468,-0.459,-2.1642,-0.0939,-1.0604,-1.3897,76,9.23,26.69,-40.34,341.13,-8.66,-3.11,2,50.85,12.925628,77.68656,0,2909.56913139105,0,78.49677,0,0 / 19,77015,2018-08-07 17:01:02:228
-1.3973,0.6299,9.3255,0.2604,0.8624,9.7652,-1.9125,-0.1506,0.1115,0.2477,0.051,-0.5181,76,-7,18.71,-35.04,14.99,-4.15,-2.03,2,52.422,12.925628,77.68656,0,2909.56913139105,0,78.49677,0,0 / 19,77515,2018-08-07 17:01:02:728
-0.4977,0.7329,9.7744,0.0282,0.5984,9.7883,-0.5415,0.1603,-0.0544,0.0242,-0.154,0.121,52,-6.1,19.48,-36.89,16.37,-3.4,0.33,2,48.999,12.925628,77.68656,0,2909.56913139105,0,78.49677,0,0 / 19,78017,2018-08-07 17:01:03:230
0.1033,-1.2184,11.843,-0.7552,1.0001,9.7262,-0.5027,-1.6425,2.6981,-0.2057,0.5707,0.6275,40,-4.3,19.86,-35.62,13.35,-6.61,2.7,2,42.318,12.925628,77.68656,0,2909.56913139105,0,78.49677,0,0 / 19,78515,2018-08-07 17:01:03:728
-1.3165,1.1363,10.2221,-0.9906,0.8388,9.7204,-0.3808,0.8297,-0.4418,0.0166,0.2043,0.591,28,2.63,23.58,-36.74,1.62,-4.91,5.82,2,46.2,12.925628,77.68656,0,2909.56913139105,0,78.49677,0,0 / 19,79016,2018-08-07 17:01:04:229
-0.3223,2.7943,6.7828,-0.2165,2.2533,9.5418,-0.038,0.4029,-2.4835,0.427,-0.6732,-0.238,24,11.32,26.91,-39.37,345.9,-11.75,3.41,2,45.094,12.925628,77.68656,0,2909.56913139105,0,78.49677,0,0 / 19,79515,2018-08-07 17:01:04:728
1.9414,1.3787,6.5685,-0.5897,2.544,9.4526,2.7507,-1.8905,-0.585,0.6105,-0.6618,-1.481,120,1.37,21.16,-36.75,2.5,-15.04,3.57,2,47.489,12.925628,77.68656,0,2909.56913139105,0,78.49677,0,0 / 19,80015,2018-08-07 17:01:05:228
-0.9233,2.7446,8.7921,-0.5273,2.4102,9.4912,-0.3776,-0.0648,-0.145,-0.049,-0.2476,-0.3837,160,-10.18,10.01,-26.07,35.64,-14.23,3.18,2,51.73,12.925628,77.68656,0,2909.56913139105,0,78.49677,0,0 / 19,80516,2018-08-07 17:01:05:729
-1.3327,1.3572,9.517,-0.2065,1.8373,9.6308,-1.2072,-0.1372,-0.6372,-0.3225,-0.0083,0.218,84,-8.86,13.3,-21.11,29.11,-11.89,1.29,2,50.654,12.925628,77.68656,0,2909.56913139105,0,78.49677,0,0 / 19,81015,2018-08-07 17:01:06:228
-0.0326,1.9539,6.6128,-0.3746,1.5195,9.681,-0.1151,-0.0485,-1.8422,0.5322,0.3589,0.8521,12,1.05,26.4,-20.08,359.55,-8.91,2.22,2,49.961,12.925628,77.68656,0,2909.56913139105,0,78.49677,0,0 / 19,81515,2018-08-07 17:01:06:728
-0.9143,-0.5977,9.2788,-0.3936,0.8887,9.7584,0.1061,-2.486,2.7345,0.3006,-0.5981,-1.636,20,-3.07,25.86,-13.66,8.3,-4.76,3.9,2,47.008,12.925628,77.68656,0,2909.56913139105,0,78.49677,0,0 / 19,82015,2018-08-07 17:01:07:228
-0.2924,1.1968,8.8275,-0.0738,2.2541,9.5438,-0.4334,-0.8893,-0.5075,0.2323,-0.0539,-1.2979,28,-19.1,5.72,-8.88,67.49,-12.56,-0.44,2,51.113,12.925628,77.68656,0,2909.56913139105,0,78.49677,0,0 / 19,82516,2018-08-07 17:01:07:729
-0.4797,0.8849,10.182,0.0254,2.0477,9.5904,-0.8576,-1.0169,0.8481,0.1574,-0.1783,-1.2571,16,-13.1,-21.62,-2.98,148.2,-11.59,-0.53,2,52.027,12.925628,77.68656,0,2909.56913139105,0,78.49677,0,0 / 19,83020,2018-08-07 17:01:08:233
-2.2419,3.2235,9.1602,0.3745,1.6679,9.6565,1.7338,-1.7552,0.4459,-0.061,0.1089,-0.3871,12,0.79,-33.14,0.18,181.76,-9.79,-2.22,2,43.038,12.925628,77.68656,0,2909.56913139105,0,78.49677,0,0 / 19,83516,2018-08-07 17:01:08:729
-0.9646,0.9603,8.618,0.0898,1.4228,9.7025,-1.0168,-0.4791,-0.952,0.1309,0.202,0.6453,12,-0.06,-31.82,0.16,180,-7.96,-1.01,2,47.113,12.925628,77.68656,0,2909.56913139105,0,78.49677,0,0 / 19,84015,2018-08-07 17:01:09:228
-2.3843,-0.7234,14.2054,0.0591,0.7305,9.7792,-2.408,0.3918,2.1158,-0.2622,0.3305,0.858,12,-12.53,-22.09,-3.27,149.12,-4.27,-0.35,2,51.6,12.925628,77.68656,0,2909.56913139105,0,78.49677,0,0 / 19,84515,2018-08-07 17:01:09:728
-0.1559,2.6082,8.5641,-0.3232,2.1311,9.5668,0.2884,0.4309,-1.0416,-0.0576,0.153,0.6125,12,-20.31,-5.46,-4.8,101.06,-12.55,1.93,2,46.083,12.925628,77.68656,0,2909.56913139105,0,78.49677,0,0 / 19,85015,2018-08-07 17:01:10:228
-0.7497,2.5058,7.3712,-0.5631,2.4998,9.4659,-0.0828,-0.1819,-2.1743,0.076,0.3495,0.5667,8,-24.06,8.39,-9.32,68.31,-14.37,2.68,2,48.792,12.925628,77.68656,0,2909.56913139105,0,78.49677,0,0 / 19,85515,2018-08-07 17:01:10:728
0.2834,1.6176,8.1696,-0.5698,2.3573,9.502,1.1029,-0.9797,-0.0083,0.4778,-0.1819,-0.2385,12,-23.95,22.67,-16.54,43.78,-13.91,3.43,2,49.163,12.925628,77.68656,0,2909.56913139105,0,78.49677,0,0 / 19,86016,2018-08-07 17:01:11:229
1.0089,3.4623,8.023,-0.8029,2.7558,9.3772,0.6435,0.7856,-0.0116,-0.0324,0.3179,0.3002,12,-24.48,35.57,-23.77,32.54,-16.32,4.89,2,49.477,12.925628,77.68656,0,2909.56913139105,0,78.49677,0,0 / 19,86515,2018-08-07 17:01:11:728
-0.1547,2.4268,8.1792,-0.2778,2.0875,9.5779,0.0811,0.34,-1.2188,-0.3987,-0.5751,-0.4175,8,-43.38,38.53,-25.42,45.77,-13.66,3.32,2,49.336,12.925628,77.68656,0,2909.56913139105,0,78.49677,0,0 / 19,87017,2018-08-07 17:01:12:230
0.1775,2.5094,7.7034,0.0476,2.9221,9.3611,0.2482,-1.6116,1.1487,0.2511,0.2211,-0.1029,16,-68.94,30.21,-38.57,59.42,-16.65,-1.13,2,48.301,12.925628,77.68656,0,2909.56913139105,0,78.49677,0,0 / 19,87515,2018-08-07 17:01:12:728
-0.876,3.6059,6.0065,-0.447,2.3538,9.5095,0.2607,0.1484,-1.9307,0.7372,0.2202,0.3515,20,-74.85,22.66,-43.59,67.41,-13.89,2.69,2,54.692,12.925628,77.68656,0,2909.56913139105,0,78.49677,0,0 / 19,88015,2018-08-07 17:01:13:228
2.2562,1.4039,10.2748,0.8761,3.6872,9.0447,1.5498,-1.4799,-0.7411,-0.0963,-0.0379,-0.0384,28,-71.51,13.12,-31.37,69.03,-22.52,-5.3,2,54.867,12.925628,77.68656,0,2909.56913139105,0,78.49677,0,0 / 19,88515,2018-08-07 17:01:13:728
-1.3967,2.7051,10.8003,-1.1432,1.9877,9.5348,-0.0683,0.7762,1.6678,-0.1105,0.1645,-0.1112,160,-37.61,-18.49,-45.9,102.13,-11.69,6.84,2,52.403,12.925628,77.68656,0,2909.56913139105,0,78.49677,0,0 / 19,89015,2018-08-07 17:01:14:228
0.7251,1.8007,8.0835,-1.4133,2.3827,9.4072,1.5783,-0.0809,-2.845,-0.6439,-0.4049,0.6313,108,-20.99,-7.45,-51.84,80.15,-14.06,8.54,2,52.964,12.925628,77.68656,0,2909.56913139105,0,78.49677,0,0 / 19,89515,2018-08-07 17:01:14:728
-1.8696,-0.6869,10.6297,-0.7578,0.9803,9.7281,-0.7488,-2.0053,0.9537,0.0823,-0.7071,0.2677,16,-5.31,9.94,-50.11,36.73,-5.57,6.91,2,55.641,12.925628,77.68656,0,2909.56913139105,0,78.49677,0,0 / 19,90015,2018-08-07 17:01:15:228
-3.5012,-0.8281,7.5651,-1.9643,0.7311,9.5801,-1.2001,-0.6581,0.0453,-0.7108,0.3731,1.9336,44,13.32,26.44,-48.92,354.44,-4.28,11.59,2,54.338,12.925628,77.68656,0,2909.56913139105,0,78.49677,0,0 / 19,90516,2018-08-07 17:01:15:729
-2.9931,-0.6408,8.8239,-3.1871,-0.2725,9.2703,0.2329,-0.5948,0.4146,0.2165,-0.0083,0.0461,64,40.74,28.28,-37.23,314.3,2.29,19.04,2,56.09,12.925628,77.68656,0,2909.56913139105,0,78.49677,0,0 / 19,91015,2018-08-07 17:01:16:228
-2.6088,-0.226,9.6876,-2.5624,-0.0338,9.4659,0.109,-0.4749,-0.0324,-0.1336,-0.2023,-0.0292,56,40.79,30.95,-41.28,316.88,0.2,15.15,2,56.388,12.925628,77.68656,0,2909.56913139105,0,78.49677,0,0 / 19,91516,2018-08-07 17:01:16:729
-1.7014,-0.39,9.505,-2.0372,0.0938,9.5923,0.1503,-0.1984,-0.3172,0.0775,0.0986,0.1326,60,41.77,24.79,-43.37,307.83,-0.21,11.66,2,55.546,12.925628,77.68656,0,2909.56913139105,0,78.49677,0,0 / 19,92015,2018-08-07 17:01:17:228
-1.465,-0.035,9.5373,-1.7366,0.2298,9.6489,0.1812,-0.302,0.1796,0.1375,-0.1313,-0.0633,60,41.78,25.54,-45.86,309.36,-0.95,10.67,2,55.235,12.925628,77.68656,0,2909.56913139105,0,78.49677,0,0 / 19,92516,2018-08-07 17:01:17:729
-1.3057,0.433,9.6505,-1.2718,0.4801,9.712,0.0319,-0.1148,-0.0539,0.0436,-0.11,-0.0059,52,39.64,23.6,-46.19,308.31,-2.67,7.84,2,55.551,12.925628,77.68656,0,2909.56913139105,0,78.49677,0,0 / 19,93016,2018-08-07 17:01:18:229
-0.9292,-0.0321,9.7127,-1.2271,0.7959,9.697,-0.1206,-0.8333,-0.1161,0.0856,0.1292,0.4582,52,41.94,20.91,-43.65,304.56,-4.66,7.21,2,49.78,12.925628,77.68656,0,2909.56913139105,0,78.49677,0,0 / 19,93515,2018-08-07 17:01:18:728
-0.9179,0.6335,8.8538,-1.8852,0.5952,9.6053,1.0637,0.0858,-0.2254,-0.1338,-0.1675,0.3848,48,42.3,22.2,-41.18,307.49,-3.65,11.86,2,52.396,12.925628,77.68656,0,2909.56913139105,0,78.49677,0,0 / 19,94015,2018-08-07 17:01:19:228
-1.8522,-0.2457,10.5812,-2.4577,0.1735,9.4921,0.7238,-0.3336,0.8304,0.1735,0.3195,-0.1107,116,47.38,24.41,-45.11,306.12,-1.01,14.52,2,55.988,12.925628,77.68656,0,2909.56913139105,0,78.49677,0,0 / 19,94517,2018-08-07 17:01:19:730
-1.9761,-1.2699,9.1315,-2.4855,-0.7547,9.4564,-0.3831,0.2938,0.0035,0.1108,-0.0862,-0.4635,196,29.92,15.61,-42,303.72,4.41,14.73,2,55.363,12.925628,77.68656,0,2909.56913139105,0,78.49677,0,0 / 19,95016,2018-08-07 17:01:20:229
-2.5322,0.3839,10.4352,-2.7567,-0.7142,9.3841,0.2517,1.0688,0.9869,0.5417,-0.2692,-0.1428,344,41.08,18.37,-28.17,294.31,5.93,17.44,2,51.116,12.925628,77.68656,0,2909.56913139105,0,78.49677,0,0 / 19,95515,2018-08-07 17:01:20:728
-0.3247,0.7975,9.2111,-1.3796,0.9685,9.6607,1.5674,-0.3491,-1.3113,0.5803,-0.1497,-1.2216,632,23.96,24.57,-44.67,329.57,-5.67,8.13,2,51.135,12.925628,77.68656,0,2909.56913139105,0,78.49677,0,0 / 19,96016,2018-08-07 17:01:21:229
-3.4797,0.4318,9.1076,-1.7162,1.6115,9.5199,-0.2668,-1.7701,1.2967,0.6941,-0.2135,-1.0511,112,10.46,21.93,-54.83,0.07,-7.95,10.34,2,45.432,12.925628,77.68656,0,2909.56913139105,0,78.49677,0,0 / 19,96515,2018-08-07 17:01:21:728
-2.1036,3.9704,8.2624,-0.9267,3.3358,9.1752,-0.9006,0.6811,-0.6218,0.239,-0.3807,-0.1217,76,-0.92,11.65,-67.36,15.13,-19.03,6.8,2,43.562,12.925628,77.68656,0,2909.56913139105,0,78.49677,0,0 / 19,97016,2018-08-07 17:01:22:229
-1.0633,3.2947,7.6555,-1.5279,3.2227,9.1351,0.3822,-0.0344,-1.1971,0.113,0.2336,0.1569,392,-0.17,7.5,-68.86,20.5,-18.68,8.87,2,43.883,12.925628,77.68656,0,2909.56913139105,0,78.49677,0,0 / 19,97515,2018-08-07 17:01:22:728
-1.76,3.3815,6.9151,-1.7912,3.4231,9.0135,0.9024,-0.9635,-2.0429,0.2428,-0.1089,0.2137,104,1.77,2.76,-66.31,23.11,-20.43,11.24,2,49.775,12.925628,77.68656,0,2909.56913139105,0,78.49677,0,0 / 19,98015,2018-08-07 17:01:23:228
-0.7323,2.8853,11.2612,-0.6634,3.887,8.9789,0.4407,-1.0655,2.3728,-0.0527,0.3001,-0.219,200,-5.89,2.9,-59.04,18.88,-23.77,2.94,2,40.986,12.925628,77.68656,0,2909.56913139105,0,78.49677,0,0 / 19,98515,2018-08-07 17:01:23:728
-1.7463,2.9487,10.6584,-0.6841,3.7392,9.04,-0.2001,-0.1373,0.9421,-0.2226,0.3151,-0.0498,180,-7.03,2.4,-50.08,27.5,-22.41,4.33,2,50.981,12.925628,77.68656,0,2909.56913139105,0,78.49677,0,0 / 19,99015,2018-08-07 17:01:24:228
-0.9693,3.5353,10.5285,-0.9777,3.22,9.2112,-0.1041,0.5016,0.4838,-0.2592,0.2769,0.3326,64,-4.69,9.45,-44.52,22.89,-19.17,6.06,2,49.649,12.925628,77.68656,0,2909.56913139105,0,78.49677,0,0 / 19,99515,2018-08-07 17:01:24:728
0.1643,2.9493,7.2006,0.1771,2.8751,9.3741,-0.0344,0.1075,-1.9297,0.1586,-0.0207,0.2197,88,-9.36,10.58,-38.12,21.67,-16.45,-0.78,2,49.804,12.925628,77.68656,0,2909.56913139105,0,78.49677,0,0 / 19,100015,2018-08-07 17:01:25:228
0.3463,1.8145,7.8345,-0.5651,2.4487,9.4792,-0.3465,-1.1451,-0.0421,0.1302,0.1466,0.7002,244,-4.95,18.37,-37.78,15.13,-14.46,3.41,2,50.368,12.925628,77.68656,0,2909.56913139105,0,78.49677,0,0 / 19,100515,2018-08-07 17:01:25:728
-0.0847,2.0252,9.8618,-0.1791,2.5581,9.4654,-1.7645,-0.5714,4.3248,-0.5189,0.2062,0.2655,52,-3.1,21.06,-39.93,5.98,-17.06,0.47,2,50.006,12.925628,77.68656,0,2909.56913139105,0,78.49677,0,0 / 19,101015,2018-08-07 17:01:26:228
0.0266,2.7482,10.0479,-0.6408,2.6369,9.4237,0.3427,0.2254,0.4841,-0.1082,0.3108,0.646,72,6.56,27.52,-43.81,353.7,-15.82,3.49,2,48.188,12.925628,77.68656,0,2909.56913139105,0,78.49677,0,0 / 19,101515,2018-08-07 17:01:26:728
0.1685,1.1082,9.8079,-0.9675,1.4331,9.653,0.7809,0.3382,-0.4682,-0.4285,-0.0299,0.4207,104,17.42,32.84,-42.08,342.72,-9.67,6.15,2,59.816,12.925628,77.68656,0,2909.56913139105,0,78.49677,0,0 / 19,102015,2018-08-07 17:01:27:228
0.3085,1.1429,8.1188,-0.8316,1.6683,9.6279,0.4539,-1.3676,0.3184,0.0492,0.0003,-0.4514,24,11.72,31.32,-44.66,348.1,-9.79,4.94,2,61.585,12.925628,77.68656,0,2909.56913139105,0,78.49677,0,0 / 19,102515,2018-08-07 17:01:27:728
-1.9348,0.3301,9.3362,-1.0347,2.3051,9.4756,-0.2672,0.2042,-0.9488,0.2307,0.0729,-0.1711,16,6.51,27.41,-51.24,357.24,-12.83,5.79,2,57.768,12.925628,77.68656,0,2909.56913139105,0,78.49677,0,0 / 19,103015,2018-08-07 17:01:28:228
0.5839,3.0038,9.244,-0.5689,2.1758,9.5453,0.6087,0.2502,-0.8399,0.4833,-0.4864,-1.2827,12,-9.19,18.43,-51.18,22.7,-12.82,3.41,2,48.604,12.925628,77.68656,0,2909.56913139105,0,78.49677,0,0 / 19,103516,2018-08-07 17:01:28:729
-0.6413,2.4561,9.9497,-0.6857,1.8003,9.6156,0.1489,0.1798,-0.1116,-0.3477,-0.149,-0.6699,12,-18.89,2.6,-50.94,61.93,-10.58,4.08,2,54.618,12.925628,77.68656,0,2909.56913139105,0,78.49677,0,0 / 19,104015,2018-08-07 17:01:29:228
-0.1326,1.8887,6.9791,-0.6825,1.4717,9.6715,0.4681,0.4115,-2.5636,-0.2098,-0.179,-0.1739,12,-19.36,-2.81,-52.15,77.36,-9.32,4.59,2,57.791,12.925628,77.68656,0,2909.56913139105,0,78.49677,0,0 / 19,104515,2018-08-07 17:01:29:728
1.259,1.0136,9.0681,-0.3315,1.6778,9.6564,0.5236,-1.0375,1.8209,0.2147,-0.6984,-0.426,12,-21.03,-8.85,-50.59,90.68,-9.85,1.97,2,55.449,12.925628,77.68656,0,2909.56913139105,0,78.49677,0,0 / 19,105015,2018-08-07 17:01:30:228
-0.0015,1.4302,11.6742,-0.1132,0.3691,9.799,0.2127,0.7092,1.9948,-0.3863,0.2517,-0.0793,12,-21.33,-8.86,-50.6,105.9,-3.42,-0.19,2,49.331,12.925628,77.68656,0,2909.56913139105,0,78.49677,0,0 / 19,105516,2018-08-07 17:01:30:729
-0.4857,1.5715,9.3165,-0.1693,0.9639,9.7577,-0.096,0.541,-0.4365,-0.2471,-0.3594,-0.2328,16,-20.12,-7.93,-51.51,95.72,-6.45,2.14,2,43.924,12.925628,77.68656,0,2909.56913139105,0,78.49677,0,0 / 19,106015,2018-08-07 17:01:31:228
-0.3612,0.0978,9.3093,-0.1077,1.2011,9.7322,-0.421,-1.5275,0.5509,0.0595,0.1034,-0.2788,16,-21.99,-11.1,-50.28,102.34,-6.99,0.12,2,41.859,12.925628,77.68656,0,2909.56913139105,0,78.49677,0,0 / 19,106516,2018-08-07 17:01:31:729
-0.6934,0.2594,11.2803,-0.6091,1.0134,9.7351,-0.6462,-0.9052,3.2613,-0.649,0.6108,0.0848,16,-22.72,-4.82,-57.15,88.36,-5.93,3.58,2,44.508,12.925628,77.68656,0,2909.56913139105,0,78.49677,0,0 / 19,107020,2018-08-07 17:01:32:233
-0.5456,2.4884,9.3177,0.4101,1.3927,9.6986,-1.0039,1.0984,-0.1647,0.2025,-0.314,-0.241,16,-28.29,-4.07,-50.78,84.35,-7.33,-1.55,2,49.838,12.925628,77.68656,0,2909.56913139105,0,78.49677,0,0 / 19,107516,2018-08-07 17:01:32:729
-0.3349,1.6864,8.6072,-0.2374,1.166,9.7342,-0.2555,0.8632,-2.0033,-0.0308,0.0848,-0.1304,20,-29.68,0.49,-58.27,77.77,-6.83,1.4,2,51.217,12.925628,77.68656,0,2909.56913139105,0,78.49677,0,0 / 19,108015,2018-08-07 17:01:33:228
0.5546,0.5228,8.0679,-0.7456,0.9678,9.7303,-0.9479,-1.5259,0.3655,0.1066,-0.3438,0.1959,24,-29.27,5.27,-64.18,71.89,-5.66,4.38,2,60.1,12.925628,77.68656,0,2909.56913139105,0,78.49677,0,0 / 19,108515,2018-08-07 17:01:33:728
-1.8899,1.6577,10.7859,0.0722,1.3992,9.706,-1.3654,0.5634,0.6715,0.2216,-0.1844,-0.3818,56,-32.73,-2.19,-58,79,-8.2,-0.43,2,62.41,12.925628,77.68656,0,2909.56913139105,0,78.49677,0,0 / 19,109015,2018-08-07 17:01:34:228
-0.2499,1.751,9.3781,-0.4006,1.1854,9.7265,-0.368,0.2846,0.1056,-0.3362,0.2621,0.1936,80,-29.56,-4.72,-59.15,86.45,-6.94,2.36,2,55.141,12.925628,77.68656,0,2909.56913139105,0,78.49677,0,0 / 19,109515,2018-08-07 17:01:34:728
-0.8227,1.7397,7.7417,-0.6828,1.3134,9.6943,-0.2174,-1.0379,-1.175,0.0744,-0.3117,0.4536,80,-26.5,-2.46,-56.94,80.14,-7.7,4.03,2,54.391,12.925628,77.68656,0,2909.56913139105,0,78.49677,0,0 / 19,110016,2018-08-07 17:01:35:229
0.272,1.5954,8.4384,-0.8443,1.9782,9.5679,2.0953,-0.7469,-0.8962,0.5027,0.1054,-0.5075,76,-22.04,-2.88,-53.44,74.6,-11.64,5.04,2,53.298,12.925628,77.68656,0,2909.56913139105,0,78.49677,0,0 / 19,110517,2018-08-07 17:01:35:730
0.1416,3.163,9.1016,-0.5002,1.7557,9.6352,0.1342,1.0214,-0.4609,0.0428,0.3605,-0.3131,76,-19.01,-11.2,-48.05,97.04,-10.1,1.55,2,54.598,12.925628,77.68656,0,2909.56913139105,0,78.49677,0,0 / 19,111016,2018-08-07 17:01:36:229
-1.1256,2.5184,9.1632,-0.8403,2.2858,9.4994,-0.0385,0.3214,-1.1516,-0.1026,-0.1862,-0.0088,64,-16.36,-12.35,-45.21,93.85,-13.77,5.68,2,55.186,12.925628,77.68656,0,2909.56913139105,0,78.49677,0,0 / 19,111515,2018-08-07 17:01:36:728
0.2559,1.5457,9.3536,-0.4338,2.1956,9.5479,0.3559,-0.8299,-0.0911,-0.0108,0.0338,0.3827,64,-16.51,-8.61,-40.6,89.26,-12.99,2.82,2,55.403,12.925628,77.68656,0,2909.56913139105,0,78.49677,0,0 / 19,112016,2018-08-07 17:01:37:229
-1.924,2.3262,9.3105,-0.6596,1.7541,9.6259,-0.6315,0.8313,-0.5685,-0.1365,0.1826,0.2144,64,-14.63,-5.09,-42.44,82.36,-10.3,3.92,2,55.533,12.925628,77.68656,0,2909.56913139105,0,78.49677,0,0 / 19,112515,2018-08-07 17:01:37:728
-1.5128,1.6996,9.3302,-1.2965,1.6458,9.5802,-0.2418,0.0336,-0.1609,0.1559,-0.5862,-0.3541,72,-11.9,-3.26,-43.02,79.29,-9.31,9.48,2,59.344,12.925628,77.68656,0,2909.56913139105,0,78.49677,0,0 / 19,113018,2018-08-07 17:01:38:231
-0.1727,1.5254,9.3554,-0.2266,1.7146,9.6529,0.9561,-0.8899,1.4433,-0.415,-0.0006,-0.2625,76,-13.1,-4.48,-38.08,75.11,-11.63,1.28,2,62.761,12.925628,77.68656,0,2909.56913139105,0,78.49677,0,0 / 19,113516,2018-08-07 17:01:38:729
-0.3319,1.9007,7.628,-1.0761,1.3916,9.6476,0.443,0.5332,-1.1454,0.1043,0.1336,0.1198,80,-11.95,-5.37,-40.53,87.76,-8.16,6.36,2,61.806,12.925628,77.68656,0,2909.56913139105,0,78.49677,0,0 / 19,114015,2018-08-07 17:01:39:228
-0.5378,-0.0967,13.6105,-2.3727,1.0149,9.461,0.0075,0.0323,1.9922,-1.1202,1.1357,0.6867,84,-9.58,-4.29,-45.13,81.17,-9.19,10.64,2,60.109,12.925628,77.68656,0,2909.56913139105,0,78.49677,0,0 / 19,114515,2018-08-07 17:01:39:728
-2.3712,3.1307,12.5696,-0.866,2.7074,9.3857,-1.165,1.1443,2.213,0.4572,0.7412,-0.143,72,-9.65,-7.44,-41.39,72.64,-16.03,5.27,2,60.817,12.925628,77.68656,0,2909.56913139105,0,78.49677,0,0 / 19,115016,2018-08-07 17:01:40:229
-0.9305,5.0993,9.2494,-0.7029,3.8711,8.9828,0.7783,1.148,1.5212,0.1463,-0.1673,0.2245,64,-10.64,-10.74,-40.46,72.09,-22.63,5.45,2,56.271,12.925628,77.68656,0,2909.56913139105,0,78.49677,0,0 / 19,115515,2018-08-07 17:01:40:728
0.612,6.5472,5.7096,-0.2748,3.963,8.966,0.9642,2.4686,-1.3494,-0.4204,-0.6629,-1.2983,76,-9.71,-19.19,-39.14,93.98,-25.14,2.1,2,54.826,12.925628,77.68656,0,2909.56913139105,0,78.49677,0,0 / 19,116015,2018-08-07 17:01:41:228
-1.7403,0.3773,13.2687,-1.8258,2.3026,9.356,-1.6098,-1.5577,6.0123,-0.5294,0.0452,0.7146,76,-6.9,-22.77,-45.55,123.84,-15.16,11.55,2,55.816,12.925628,77.68656,0,2909.56913139105,0,78.49677,0,0 / 19,116515,2018-08-07 17:01:41:728
-0.187,3.5084,9.3548,-0.7972,2.2369,9.5148,1.3188,0.5989,-0.2852,0.0581,-0.4029,-1.0735,84,-11.74,-26.1,-43.15,135.4,-13.19,4.79,2,55.237,12.925628,77.68656,0,2909.56913139105,0,78.49677,0,0 / 19,117015,2018-08-07 17:01:42:228
-0.8796,0.6862,9.3745,-1.755,1.0326,9.5929,0.5347,0.0125,-0.4344,-0.3568,-0.0738,-0.1698,88,-0.3,-40.11,-39.4,168.32,-7.35,10.62,2,56.941,12.925628,77.68656,0,2909.56913139105,0,78.49677,0,0 / 19,117515,2018-08-07 17:01:42:728
-1.4697,0.5797,7.9979,-1.2756,1.3867,9.6239,0.0342,-1.2107,-1.1882,0.4638,-0.1533,-0.0157,88,3.13,-46.73,-28.14,179.05,-8.13,7.55,2,57.118,12.925628,77.68656,0,2909.56913139105,0,78.49677,0,0 / 19,118015,2018-08-07 17:01:43:228
1.1082,0.0739,9.7774,-0.2659,1.7711,9.6417,1.0989,-0.3293,0.7287,0.1615,-0.3284,-0.2066,88,8.53,-45.98,-23.08,191.52,-10.4,1.58,2,57.124,12.925628,77.68656,0,2909.56913139105,0,78.49677,0,0 / 19,118516,2018-08-07 17:01:43:729
-0.5145,2.4872,9.335,-0.7672,1.6203,9.6414,0.0302,0.5135,0.0589,-0.4395,0.1485,-0.1144,80,15.93,-47.11,-19.82,199.08,-11,3.99,2,56.257,12.925628,77.68656,0,2909.56913139105,0,78.49677,0,0 / 19,119015,2018-08-07 17:01:44:228
-1.3261,2.6058,8.9041,-0.4052,1.6988,9.6499,-0.8989,0.1751,0.1503,0.0535,-0.0937,-0.3069,80,19.76,-47.98,-19.12,203.64,-9.98,2.4,2,58.435,12.925628,77.68656,0,2909.56913139105,0,78.49677,0,0 / 19,119515,2018-08-07 17:01:44:728
-2.2101,1.1501,6.1783,-0.7254,1.1485,9.7121,-0.4218,-0.9706,-2.7281,0.0846,-0.4693,-0.9285,80,29.86,-47.38,-19.22,212.47,-6.78,5.44,2,56.288,12.925628,77.68656,0,2909.56913139105,0,78.49677,0,0 / 19,120015,2018-08-07 17:01:45:228
-0.2271,-2.0689,12.4355,-0.5219,-0.0149,9.7927,-0.743,-1.9975,2.1003,-0.2945,0.0534,0.6858,76,25.62,-50.09,-19.6,206.72,-1,2.83,2,57.835,12.925628,77.68656,0,2909.56913139105,0,78.49677,0,0 / 19,120515,2018-08-07 17:01:45:728
-0.7832,0.7006,10.1951,-0.0833,0.4597,9.7955,-0.5684,0.4088,0.4406,0.0922,-0.0237,0.1975,72,25.46,-47.85,-10.03,207.65,-2.33,0.54,2,61.47,12.925628,77.68656,0,2909.56913139105,0,78.49677,0,0 / 19,121015,2018-08-07 17:01:46:228
-0.5773,1.5439,10.6668,-0.1662,0.7088,9.7796,0.5374,0.575,0.1485,-0.2973,-0.026,-0.0141,72,28.08,-40.32,-8.79,215.38,-4.14,0.97,2,60.545,12.925628,77.68656,0,2909.56913139105,0,78.49677,0,1 / 19,121515,2018-08-07 17:01:46:728
-0.4821,1.775,7.528,-0.3136,1.7692,9.6406,-0.1258,0.0215,-1.9193,0.3867,-0.334,-0.1133,64,28.28,-34.47,-6.05,220.48,-9.05,2.91,2,60.092,12.925628,77.68656,0,2909.56913139105,0,78.49677,0,1 / 19,122016,2018-08-07 17:01:47:229
-0.3439,1.253,9.0914,-0.4044,2.125,9.5651,0.194,-1.579,0.5218,-0.1958,0.2497,-0.3619,60,35.03,-26.25,-10.93,236.68,-12.51,2.42,2,55.922,12.925628,77.68656,0,2909.56913139105,0,78.49677,0,1 / 19,122515,2018-08-07 17:01:47:728
-1.8301,-0.0057,11.0068,-1.2153,1.3352,9.639,-0.5472,-1.4507,3.2598,-0.7199,0.4656,-0.2193,56,38.05,-23.59,-15.84,239.57,-7.83,7.19,2,55.595,12.925628,77.68656,0,2909.56913139105,0,78.49677,0,1 / 19,123016,2018-08-07 17:01:48:229
-2.1611,1.353,10.1694,-1.0801,0.041,9.7469,-1.088,1.3879,0.0635,0.3709,-0.1514,-0.1275,60,40.67,-24,-21.35,237.37,1.12,6.74,2,55.983,12.925628,77.68656,0,2909.56913139105,0,78.49677,0,1 / 19,123515,2018-08-07 17:01:48:728
-0.3175,0.3755,9.2764,-1.4627,0.511,9.6835,1.2992,-0.1249,-0.661,-0.0972,0.124,0.2494,60,39.09,-26.91,-22.29,234.11,-2.99,8.59,2,56.016,12.925628,77.68656,0,2909.56913139105,0,78.49677,0,1 / 19,124016,2018-08-07 17:01:49:229
0.9562,2.0982,5.8688,-0.1021,0.952,9.7598,0.3651,0.3559,-4.0229,0.3523,-0.3365,0.3192,56,35.4,-29.95,-27.91,230.83,-4.26,1.88,2,56.342,12.925628,77.68656,0,2909.56913139105,0,78.49677,0,1 / 19,124515,2018-08-07 17:01:49:728
-0.0063,-0.3451,9.8767,-0.5962,1.0291,9.7343,0.4762,-1.3426,-0.0705,0.2144,0.2263,-0.4857,52,34.13,-31.76,-31.33,228.57,-5.51,2.6,2,56.691,12.925628,77.68656,0,2909.56913139105,0,78.49677,0,1 / 19,125015,2018-08-07 17:01:50:228
0.0548,-2.4915,16.1992,-1.0116,-0.023,9.7543,-1.0454,-1.2737,6.3922,-1.3431,0.3248,0.6171,52,34.95,-32.97,-35.02,226.75,-4.38,4.86,2,56.487,12.925628,77.68656,0,2909.56913139105,0,78.49677,0,1 / 19,125516,2018-08-07 17:01:50:729
-1.2716,2.6668,9.4122,-0.1776,1.2348,9.727,-0.5211,1.0608,0.1679,0.1369,-0.116,-0.0924,52,30.47,-43.5,-34.72,216.85,-7.23,1.05,2,54.197,12.925628,77.68656,0,2909.56913139105,0,78.49677,0,1 / 19,126015,2018-08-07 17:01:51:228
-0.4636,1.6301,9.2183,-0.8575,0.7906,9.737,0.497,0.7773,-0.1841,-0.1434,0.1277,0.1114,52,29.41,-49.35,-32.84,209.82,-5,4.68,2,54.605,12.925628,77.68656,0,2909.56913139105,0,78.49677,0,1 / 19,126516,2018-08-07 17:01:51:729
-0.0219,1.7235,6.0478,-0.2507,0.6113,9.7844,0.2709,0.927,-3.3624,0.1804,-0.0503,-0.0437,52,20.68,-54.65,-26.78,200.9,-3.57,1.47,2,56.869,12.925628,77.68656,0,2909.56913139105,0,78.49677,0,1 / 19,127015,2018-08-07 17:01:52:228
-0.7431,-0.5079,9.6074,-0.7184,0.4739,9.7688,0.523,-1.3663,1.0429,-0.0145,0.2083,-0.277,52,16.59,-54,-20.68,196.26,-2.77,4.21,2,56.869,12.925628,77.68656,0,2909.56913139105,0,78.49677,0,1 / 19,127516,2018-08-07 17:01:52:729
-3.2211,-0.566,12.5025,-0.8405,1.0776,9.711,-2.5446,-1.6872,2.9131,0.4466,0.3502,-0.3829,52,19.06,-51.62,-17.56,199.66,-5.08,3.38,2,55.247,12.925628,77.68656,0,2909.56913139105,0,78.49677,0,1 / 19,128015,2018-08-07 17:01:53:228
-1.3405,1.8809,10.3885,-0.4024,2.0475,9.5821,-0.4558,0.9392,0.7377,0.023,-0.1366,0.0445,48,12.96,-49.41,-9.65,195.37,-12.05,2.4,2,55.248,12.925628,77.68656,0,2909.56913139105,0,78.49677,0,1 / 19,128515,2018-08-07 17:01:53:728
-0.888,2.3262,9.6283,-0.5384,1.373,9.6951,-0.1219,0.9364,0.1052,0.0045,0.0221,-0.1622,48,14.44,-49.17,-9.93,195.96,-7.97,3.01,2,60.972,12.925628,77.68656,0,2909.56913139105,0,78.49677,0,1 / 19,129016,2018-08-07 17:01:54:229
-1.3123,1.9084,8.454,-0.4583,1.5405,9.674,-1.3121,0.6518,-2.1223,-0.248,-0.0921,0.1563,48,14.52,-46.97,-9.64,198,-9.77,2.98,2,59.158,12.925628,77.68656,0,2909.56913139105,0,78.49677,0,1 / 19,129515,2018-08-07 17:01:54:728
-0.7018,1.414,5.2804,-1.2534,0.9492,9.6798,0.9972,-0.5229,-2.5553,0.5242,-0.4814,-0.3214,56,12.99,-47.8,-12.45,193.15,-3.96,8.99,2,56.16,12.925628,77.68656,0,2909.56913139105,0,78.49677,0,1 / 19,130017,2018-08-07 17:01:55:230
-1.2974,-0.9359,13.3716,-1.4908,0.6326,9.672,-2.4482,-1.185,-0.1291,-0.4839,0.0374,0.475,56,9.89,-51.6,-14.34,188.73,-5.23,8.81,2,55.699,12.925628,77.68656,0,2909.56913139105,0,78.49677,0,1 / 19,130516,2018-08-07 17:01:55:729
0.4696,-0.1673,8.3678,-1.0185,0.5368,9.7388,1.4412,-1.1913,3.5936,-0.2773,-0.0042,0.1294,56,5.43,-53.36,-7.61,184.49,-4.17,6.2,2,55.692,12.925628,77.68656,0,2909.56913139105,0,78.49677,0,1 / 19,131015,2018-08-07 17:01:56:228
0.46,0.0847,11.5054,-0.6257,0.7724,9.7561,0.0961,0.2619,1.6272,0.024,-0.782,0.0788,60,10.13,-47.32,1.1,192.09,-4.52,3.67,2,55.229,12.925628,77.68656,0,2909.56913139105,0,78.49677,0,1 / 19,131515,2018-08-07 17:01:56:728
0.9598,1.6223,10.7578,0.5339,0.7291,9.7649,0.4731,0.6368,1.2099,0.0169,-0.1652,0.3152,60,9.75,-40.15,-1.43,194.13,-4.2,-2.44,2,54.916,12.925628,77.68656,0,2909.56913139105,0,78.49677,0,1 / 19,132015,2018-08-07 17:01:57:228
-1.0717,1.9599,5.5594,0.2743,1.4148,9.7002,-1.1325,0.1275,-4.1266,0.8333,0.0519,-0.5925,72,12.34,-32.3,-5.47,201.38,-8.29,-1.62,2,55.209,12.925628,77.68656,0,2909.56913139105,0,78.49677,0,1 / 19,132516,2018-08-07 17:01:57:729
0.6042,1.0932,7.1389,-0.1837,0.3526,9.7986,0.5339,0.094,-1.8583,-0.355,-0.5226,0.0612,76,8.59,-27.33,-12.7,198.28,-2.06,1.07,2,57.005,12.925628,77.68656,0,2909.56913139105,0,78.49677,0,1 / 19,133015,2018-08-07 17:01:58:228
0.5911,-0.4175,9.6978,-0.4145,0.7405,9.7699,1.3413,-0.9953,-1.4895,0.1638,0.01,-0.2158,80,5.11,-24.54,-14.96,190.31,-3.89,2.46,2,60.077,12.925628,77.68656,0,2909.56913139105,0,78.49677,0,1 / 19,133515,2018-08-07 17:01:58:728
-1.9007,0.6479,12.4475,-0.3462,0.4355,9.7909,-0.6859,0.6148,1.6465,-0.0692,0.4177,0.0557,96,7.27,-20.31,-22.69,199.76,-2.73,0.54,2,61.195,12.925628,77.68656,0,2909.56913139105,0,78.49677,0,1 / 19,134015,2018-08-07 17:01:59:228
-1.2249,3.4557,9.2716,0.3626,1.974,9.5991,-0.3791,1.1985,-0.8156,0.312,-0.1736,-0.0161,88,8.19,-19.48,-21.12,209.89,-10.41,-1.61,2,58.845,12.925628,77.68656,0,2909.56913139105,0,78.49677,0,1 / 19,134515,2018-08-07 17:01:59:728
0.7,2.8559,7.9889,0.0821,2.4509,9.4951,0.5538,0.4039,-1.3778,-0.0085,0.0619,0.1997,88,2.96,-24.25,-27.38,191.04,-14.43,-0.47,2,60.965,12.925628,77.68656,0,2909.56913139105,0,78.49677,0,1 / 19,135016,2018-08-07 17:02:00:229
-0.8185,2.8985,5.0763,-0.5944,2.4227,9.4841,0.2423,0.3212,-3.5907,0.2531,-0.2307,0.0807,104,2.23,-27.34,-32.64,178.29,-13.3,4.43,2,61.842,12.925628,77.68656,0,2909.56913139105,0,78.49677,0,1 / 19,135515,2018-08-07 17:02:00:728
0.1966,-0.4666,11.2773,-0.7953,1.2209,9.6978,-0.4149,-0.6696,2.9791,-0.0997,0.0386,0.6537,124,-2.06,-31.77,-32.38,170.59,-7.15,4.69,2,55.894,12.925628,77.68656,0,2909.56913139105,0,78.49677,0,1 / 19,136016,2018-08-07 17:02:01:229
-4.5224,-0.1643,10.4627,-1.7998,1.5922,9.5077,-2.6502,-1.7699,1.8741,0.3591,-0.3309,-0.35,72,1.71,-35.44,-28.56,172.9,-8.58,11.41,2,58.122,12.925628,77.68656,0,2909.56913139105,0,78.49677,0,1 / 19,136515,2018-08-07 17:02:01:728
-1.3004,1.1136,14.8794,-1.2584,0.9383,9.6802,-0.8878,0.7153,3.9562,-0.5097,-0.0659,0.0294,84,0.78,-36.87,-27.33,175.84,-5.49,7.41,2,60.687,12.925628,77.68656,0,2909.56913139105,0,78.49677,0,1 / 19,137016,2018-08-07 17:02:02:229
-0.7395,2.5387,11.2761,-2.1723,1.2668,9.4787,0.5569,1.6078,1.3917,-0.3373,0.6096,0.2357,84,3.11,-37.93,-28.2,174.42,-7.42,12.91,2,57.27,12.925628,77.68656,0,2909.56913139105,0,78.49677,0,1 / 19,137515,2018-08-07 17:02:02:728
-1.2668,1.9342,8.6946,-1.4426,1.7728,9.5366,0.296,0.0928,-0.8551,-1.3029,-0.1933,0.3705,80,2.48,-40.93,-19.53,177.67,-14.61,9.72,2,55.265,12.925628,77.68656,0,2909.56913139105,0,78.49677,0,1 / 19,138015,2018-08-07 17:02:03:228
-1.1705,1.9994,6.9905,-1.8089,0.9026,9.596,0.6486,0.2886,-1.0615,0.5927,-0.2311,-0.0975,108,3.34,-40.92,-24.15,177.78,-5.28,10.68,2,53.636,12.925628,77.68656,0,2909.56913139105,0,78.49677,0,1 / 19,138515,2018-08-07 17:02:03:728
-2.6555,0.4689,10.5656,-2.3681,0.9841,9.4654,-3.7314,-0.7981,1.6386,0.0904,-0.2577,-0.2564,104,7.16,-43.71,-16.01,183.76,-5.78,14.52,2,58.941,12.925628,77.68656,0,2909.56913139105,0,78.49677,0,1 / 19,139015,2018-08-07 17:02:04:228
-1.2866,0.3396,8.667,-1.2886,0.5999,9.7031,0.9636,-1.0696,1.3607,0.2289,-0.2905,-0.2935,116,5.49,-40.63,-13.9,184.05,-2.98,8.62,2,55.533,12.925628,77.68656,0,2909.56913139105,0,78.49677,0,1 / 19,139515,2018-08-07 17:02:04:728
-0.964,0.4743,9.3147,-1.0517,1.0524,9.6931,0.7989,-0.4145,-0.7023,-0.1567,-0.091,0.0345,144,5.64,-36.84,-10.52,187.56,-6.71,6.6,2,56.425,12.925628,77.68656,0,2909.56913139105,0,78.49677,0,1 / 19,140016,2018-08-07 17:02:05:229
-1.7038,2.3095,9.4284,-0.9016,1.6277,9.6285,-0.8851,0.0596,-0.5286,-0.2856,-0.083,0.1253,160,3.92,-34.9,-9.95,185.31,-9.55,5.35,2,56.495,12.925628,77.68656,0,2909.56913139105,0,78.49677,0,1 / 19,140515,2018-08-07 17:02:05:728
-0.8401,0.9574,6.614,-1.3206,2.1227,9.4826,0.5033,-1.0337,-2.701,0.7917,0.1125,0.1372,236,-4.57,-29.73,-19.14,164.26,-9.78,7.58,2,54.912,12.925628,77.68656,0,2909.56913139105,0,78.49677,0,1 / 19,141016,2018-08-07 17:02:06:229
0.0859,2.7805,7.0797,-0.2888,2.7459,9.4099,0.4321,-0.4408,-1.2648,-0.0257,-0.4537,0.2524,200,-5.47,-30.33,-17.61,166.88,-16.26,1.76,2,55.163,12.925628,77.68656,0,2909.56913139105,0,78.49677,0,1 / 19,141515,2018-08-07 17:02:06:728
0.6186,-0.4325,7.5747,0.4838,2.5323,9.4617,1.0187,-2.6608,2.5457,-0.3726,0.1201,0.7279,208,-9.3,-28.9,-19.86,160.69,-14.96,-2.93,2,54.455,12.925628,77.68656,0,2909.56913139105,0,78.49677,0,1 / 19,142015,2018-08-07 17:02:07:228
-0.0967,1.2387,10.926,-0.7778,0.4001,9.7676,1.0328,0.7644,0.3839,-0.5764,0.4947,0.5594,468,-15.71,-23.47,-29.32,140.04,-4.11,3.08,2,53.628,12.925628,77.68656,0,2909.56913139105,0,78.49677,0,1 / 19,142515,2018-08-07 17:02:07:728
-2.6603,-0.1823,9.5367,-0.792,0.1522,9.7734,-0.8998,-0.993,-1.2611,-0.2849,0.1936,-0.0395,656,-21.82,-9.39,-33.89,109.01,-0.89,4.63,2,57.219,12.925628,77.68656,0,2909.56913139105,0,78.49677,0,1 / 19,143015,2018-08-07 17:02:08:228
2.8081,-1.5057,8.3145,-1.8297,-0.5266,9.62,2.1701,-1.0273,-1.4041,-0.4214,0.3877,0.1725,676,-22.15,-9.6,-38.23,111.37,1.65,9.59,2,59.45,12.925628,77.68656,0,2909.56913139105,0,78.49677,0,1 / 19,143515,2018-08-07 17:02:08:728
1.292,-1.058,9.034,1.9939,0.0931,9.6014,-0.73,-1.1747,-0.4997,0.6602,-0.5972,-0.4079,164,-23.89,-21.38,-20.84,137.29,1.83,-9.73,2,54.987,12.925628,77.68656,0,2909.56913139105,0,78.49677,0,1 / 19,144015,2018-08-07 17:02:09:228
1.4416,0.2463,9.0717,1.8954,0.2402,9.6187,-1.8719,-0.1136,1.6259,-0.1956,0.2684,-0.5377,96,-27.44,-33.88,-4.1,142.86,-1.7,-12.34,2,57.477,12.925628,77.68656,0,2909.56913139105,0,78.49677,0,1 / 19,144516,2018-08-07 17:02:09:729
1.9163,0.36,9.6816,1.7169,0.1451,9.6541,0.1334,0.1906,-0.186,0.0208,0.0004,-0.0938,100,-24.29,-36.86,-7.42,148.69,-0.85,-10.08,2,55.741,12.925628,77.68656,0,2909.56913139105,0,78.49677,0,1 / 19,145015,2018-08-07 17:02:10:228
1.5128,0.9921,8.9915,1.7178,0.3883,9.6472,-0.0498,0.3927,-0.3686,0.0794,-0.0267,0.1045,96,-24.31,-37.97,-4.32,148.67,-2.02,-9.99,2,56.148,12.925628,77.68656,0,2909.56913139105,0,78.49677,0,1 / 19,145515,2018-08-07 17:02:10:728
1.4332,0.3564,8.7933,1.507,0.7878,9.6581,0.0525,-0.4698,-0.5998,0.0943,0.026,-0.1288,104,-44.18,-8.91,-8.67,100.38,-4.61,-8.87,2,56.179,12.925628,77.68656,0,2909.56913139105,0,78.49677,0,1 / 19,146016,2018-08-07 17:02:11:229
1.3752,0.4061,9.9174,1.0648,0.4337,9.739,0.2475,-0.0482,-0.0921,-0.0447,0.0352,-0.0716,112,-39.03,-19.31,-32.31,116.23,-2.53,-6.24,2,56.695,12.925628,77.68656,0,2909.56913139105,0,78.49677,0,1 / 19,146516,2018-08-07 17:02:11:729
1.423,0.1044,9.842,0.8555,0.1994,9.7672,0.1648,0.2187,-0.0857,-0.0434,0.0834,-0.0413,76,-40.18,-16.38,-41.02,112.59,-1.28,-5.28,2,55.764,12.925628,77.68656,0,2909.56913139105,0,78.49677,0,1 / 19,147015,2018-08-07 17:02:12:228
0.2774,0.0775,10.1473,0.3439,-0.1344,9.7997,0.0893,0.139,0.1916,-0.1058,0.0864,-0.1439,84,-32.54,-18.23,-41.78,120.54,0.79,-2.01,2,62.203,12.925628,77.68656,0,2909.56913139105,0,78.49677,0,1 / 19,147515,2018-08-07 17:02:12:728
-0.8269,-0.5079,8.8837,0.1506,-0.4142,9.7967,0.3361,-0.1915,0.0111,-0.1082,0.0745,-0.0897,124,-33.38,-25.62,-44.83,130.81,2.42,-0.88,2,59.325,12.925628,77.68656,0,2909.56913139105,0,78.49677,0,1 / 19,148015,2018-08-07 17:02:13:228
-0.2278,-0.1577,10.0485,-0.0978,-1.225,9.7294,0.0836,1.0843,-0.178,-0.1716,0.08,-0.3154,296,-14.15,-29.94,-31.41,156.91,6.68,0.44,2,58.908,12.925628,77.68656,0,2909.56913139105,0,78.49677,0,1 / 19,148516,2018-08-07 17:02:13:729
-1.3033,-1.8265,10.4411,-0.1266,-1.5727,9.6789,-1.9563,-0.1359,1.0172,0.201,-0.0276,0.0622,264,-15.18,-25.12,-29.92,152.76,9.92,0.62,2,57.722,12.925628,77.68656,0,2909.56913139105,0,78.49677,0,1 / 19,149015,2018-08-07 17:02:14:228
-0.3409,-2.185,9.3332,0.1995,-1.1364,9.7385,-0.3214,-0.3787,-2.5283,0.1632,0.548,0.3552,300,-7.36,-20.95,-33.5,165.75,6.65,-1.17,2,55.93,12.925628,77.68656,0,2909.56913139105,0,78.49677,0,1 / 19,149515,2018-08-07 17:02:14:728
1.9043,-1.0921,9.5086,1.7292,-1.0756,9.5929,-0.0001,-0.049,-0.2433,0.1625,-0.1492,-0.0645,204,10.61,-12.07,-49.61,227.58,6.88,-9.69,2,55.681,12.925628,77.68656,0,2909.56913139105,0,78.49677,0,1 / 19,150016,2018-08-07 17:02:15:229
1.6403,-0.8503,9.608,1.716,-0.7827,9.6236,-0.0803,0.0281,-0.0069,-0.0711,0.0459,-0.0061,192,11.31,-1.97,-80.62,251.87,4.58,-10.11,2,55.411,12.925628,77.68656,0,2909.56913139105,0,78.49677,0,1 / 19,150515,2018-08-07 17:02:15:728
1.35,-1.0891,9.6696,1.4433,-1.1038,9.6368,-0.0628,0.0019,0.0084,0.0029,-0.0296,-0.0478,224,17.05,-12.72,-58.44,232.9,6.5,-8.4,2,55.682,12.925628,77.68656,0,2909.56913139105,0,78.49677,0,1 / 19,151016,2018-08-07 17:02:16:229
1.3776,-1.1555,9.678,1.2606,-1.232,9.6469,0.0534,0.0832,-0.0036,0.024,0.0239,0.0063,236,8.06,-10.08,-41.01,221.64,7.22,-7.44,2,56.986,12.925628,77.68656,0,2909.56913139105,0,78.49677,0,1 / 19,151517,2018-08-07 17:02:16:730
0.6677,-0.8203,9.5272,0.3954,-0.7128,9.7727,0.3697,0.0944,0.1086,0.1964,0.3987,0.0031,252,10.92,-14.11,-37.82,216.89,4.17,-2.32,2,56.268,12.925628,77.68656,0,2909.56913139105,0,78.49677,0,1 / 19,152015,2018-08-07 17:02:17:228
-0.0607,-0.3062,9.8881,-0.1204,-0.4613,9.7951,0.0177,0.1517,0.0819,-0.0267,-0.039,-0.0223,280,16.73,-13.19,-59.99,225.68,2.62,0.84,2,55.629,12.925628,77.68656,0,2909.56913139105,0,78.49677,0,1 / 19,152516,2018-08-07 17:02:17:729
-1.6397,-0.8174,9.9144,-1.2642,-0.6202,9.705,-0.1352,0.0403,0.1736,0.0066,1.0307,-0.4054,300,23.61,-9.63,-67.31,226.49,3.63,7.42,2,56.009,12.925628,77.68656,0,2909.56913139105,0,78.49677,0,1 / 19,153015,2018-08-07 17:02:18:228
-3.6311,-0.903,10.1945,-2.5705,-1.2696,9.3782,-0.1808,0.147,0.1171,-0.2276,-0.0164,-0.3094,828,33.15,0.52,-64.72,244.19,6.42,15.47,2,59.541,12.925628,77.68656,0,2909.56913139105,0,78.49677,0,1 / 19,153516,2018-08-07 17:02:18:729
-4.3326,-1.3573,8.8233,-4.1346,-1.353,8.7889,-0.212,-0.0142,-0.1173,0.1167,-0.1073,-0.3276,900,37.41,-16.1,-57.69,198.04,7.8,25.7,2,56.535,12.925628,77.68656,0,2909.56913139105,0,78.49677,0,1 / 19,154015,2018-08-07 17:02:19:228
-3.6317,-1.5775,9.0519,-3.6972,-1.2734,8.9933,0.0869,-0.314,0.0414,0.1052,-0.1038,-0.0872,1016,42.44,-14.4,-67.19,209.12,7.46,22.35,2,56.331,12.925628,77.68656,0,2909.56913139105,0,78.49677,0,1 / 19,154515,2018-08-07 17:02:19:728
-3.6982,-1.4279,9.2488,-3.6191,-1.3549,9.0131,-0.0557,-0.0622,-0.0292,-0.0292,0.0218,-0.0011,832,39.27,-21.37,-65.35,201.03,7.94,21.88,2,57.165,12.925628,77.68656,0,2909.56913139105,0,78.49677,0,1 / 19,155016,2018-08-07 17:02:20:229
-3.8041,-2.4035,11.3976,-4.6037,-0.8587,8.6162,0.5017,-1.2112,0.0693,-0.6869,0.6128,-0.2976,552,14.52,-38.74,-46.84,170.09,2.34,26.04,2,57.764,12.925628,77.68656,0,2909.56913139105,0,78.49677,0,1 / 19,155515,2018-08-07 17:02:20:728
-8.3255,-2.3251,6.9791,-6.142,-2.3514,7.2744,-2.0883,-0.0624,-0.1286,0.0471,0.3523,-0.1086,1708,35.65,-18.64,-42.85,179.58,13.87,40.18,2,59.953,12.925628,77.68656,0,2909.56913139105,0,78.49677,0,1 / 19,156015,2018-08-07 17:02:21:228
-5.0096,-5.7201,12.0105,-4.7611,-2.3602,8.242,-0.2022,-1.1396,0.8092,-1.3104,-0.5517,0.7272,2264,19.36,-26.91,-44.67,170.91,13.93,30.01,2,61.306,12.925628,77.68656,0,2909.56913139105,0,78.49677,0,1 / 19,156515,2018-08-07 17:02:21:728
-2.9272,-0.7826,8.1104,-3.6368,-1.0621,9.0452,0.8456,0.2478,-1.0426,0.2603,-0.5693,2.0158,1944,-3.26,-29.76,-44.18,151.1,9.7,23.04,2,56.662,12.925628,77.68656,0,2909.56913139105,0,78.49677,0,1 / 19,157016,2018-08-07 17:02:22:229
-4.5164,1.086,8.5844,-3.5499,0.5594,9.1244,-0.6793,0.4435,-0.2228,0.3551,0.3092,-0.5018,1452,-14.03,-23.51,-42.59,127.49,-3.27,21.26,2,55.174,12.925628,77.68656,0,2909.56913139105,0,78.49677,0,1 / 19,157517,2018-08-07 17:02:22:730
-1.8414,1.1345,9.8175,-3.0431,0.3463,9.3161,1.8115,0.6213,-0.4425,0.3841,-0.3468,-0.9192,1640,-7.25,-35.18,-38.65,150.11,-1.72,19.33,2,58.88,12.925628,77.68656,0,2909.56913139105,0,78.49677,0,1 / 19,158016,2018-08-07 17:02:23:229
-3.3103,0.6401,8.9741,-2.97,0.5975,9.327,-0.1288,-0.0457,-0.0027,-0.2726,0.2598,0.7866,1468,-5.17,-35.29,-37.68,154.17,-3.59,16.93,2,55.74,12.925628,77.68656,0,2909.56913139105,0,78.49677,0,2 / 19,158515,2018-08-07 17:02:23:728
-4.4882,1.1638,9.4547,-5.2632,1.1065,8.2003,0.2708,0.3867,3.0734,-0.0008,0.0871,0.6378,2668,-3.97,-22.87,-49.2,122.87,-5.28,32.76,2,56.197,12.925628,77.68656,0,2909.56913139105,0,78.49677,0,2 / 19,159016,2018-08-07 17:02:24:229
-4.0273,0.9998,8.2798,-4.5189,1.6903,8.5377,-0.1516,0.0712,1.0051,0.0042,-0.1217,-0.1235,2488,17.27,-16.24,-53.46,122.88,-9.93,27.89,2,54.683,12.925628,77.68656,0,2909.56913139105,0,78.49677,0,2 / 20,159515,2018-08-07 17:02:24:728
-1.6804,1.608,9.857,-1.7626,1.8355,9.4707,-0.0169,-0.0306,0.1935,0.3409,-0.6092,-0.4297,1244,3.68,-25.09,-48.72,157.98,-9.94,12.33,2,54.568,12.925628,77.68656,0,2909.56913139105,0,78.49677,0,2 / 20,160017,2018-08-07 17:02:25:230
-2.4059,1.4829,9.268,-2.1479,1.3601,9.4714,0.146,-0.0098,-0.0049,-0.0221,0.3832,-0.2376,912,17.13,-18.89,-61.18,197.09,-7.97,12.78,2,55.139,12.925628,77.68656,0,2909.56913139105,0,78.49677,0,2 / 20,160516,2018-08-07 17:02:25:729
-2.5064,1.2004,9.35,-2.5673,1.1606,9.3932,-0.002,0.2078,0.1122,0.0448,-0.1118,-0.1304,1188,18.79,15.71,-66.68,358.43,-6.8,15.29,2,54.682,12.925628,77.68656,0,2909.56913139105,0,78.49677,0,2 / 20,161015,2018-08-07 17:02:26:228
-2.6142,1.1285,9.3775,-2.6477,1.0805,9.3804,-0.0163,0.0351,-0.0025,0.0022,-0.0418,-0.0361,1148,20.01,16.93,-66.35,357.25,-6.33,15.88,2,61.438,12.925628,77.68656,0,2909.56913139105,0,78.49677,0,3 / 20,161515,2018-08-07 17:02:26:728
-2.5525,0.9759,9.3967,-2.5623,0.987,9.4144,-0.0389,-0.0205,-0.0028,0.0107,-0.0331,-0.077,1124,17.28,13.79,-61.74,359.66,-5.78,15.23,2,59.77,12.925628,77.68656,0,2909.56913139105,0,78.49677,0,3 / 20,162015,2018-08-07 17:02:27:228
-2.2694,0.8101,9.4727,-2.2874,0.8604,9.4973,-0.0045,-0.0442,-0.0336,-0.0179,-0.0784,-0.0565,1012,17.87,14.23,-64.21,353.61,-5.17,13.79,2,59.158,12.925628,77.68656,0,2909.56913139105,0,78.49677,0,3 / 20,162515,2018-08-07 17:02:27:728
-2.507,0.2534,9.262,-2.6789,0.4477,9.423,0.4163,-0.2457,-0.2277,-0.5045,-0.3115,-0.4351,1204,17.94,16.43,-63.91,3.74,-4.72,16.92,2,55.578,12.925628,77.68656,0,2909.56913139105,0,78.49677,0,3 / 20,163016,2018-08-07 17:02:28:229
-2.4897,-1.0514,10.2813,-2.5518,-0.6998,9.4429,-0.0541,-0.1244,0.1469,-0.0216,0.0963,-0.1987,1340,28.45,0.25,-57.07,251.55,3.83,14.83,2,54.574,12.925628,77.68656,0,2909.56913139105,0,78.49677,0,3 / 20,163515,2018-08-07 17:02:28:728
-2.3029,-0.4708,9.3949,-2.0527,-0.7057,9.5634,0.0111,-0.036,0.2969,0.0192,0.0253,-0.0917,1176,22.72,-13.77,-49.04,214.5,4.13,12.11,2,57.048,12.925628,77.68656,0,2909.56913139105,0,78.49677,0,3 / 20,164016,2018-08-07 17:02:29:229
-1.8773,-0.7282,9.669,-1.7971,-0.7326,9.6127,-0.0079,-0.0581,-0.0757,0.0013,-0.0683,-0.0606,1100,18.41,-18.89,-48.16,200.88,4.24,10.84,2,54.383,12.925628,77.68656,0,2909.56913139105,0,78.49677,0,3 / 20,164515,2018-08-07 17:02:29:728
-1.3447,-0.8634,9.9779,-1.494,-0.7363,9.6642,0.1352,-0.077,0.2644,-0.0163,0.0482,0.0173,976,15.65,-22.69,-44.16,199.01,4.31,8.79,2,53.378,12.925628,77.68656,0,2909.56913139105,0,78.49677,0,3 / 20,165015,2018-08-07 17:02:30:228
-1.1453,-0.9431,9.9569,-1.0654,-1.0142,9.6957,-0.1,0.0114,0.0733,-0.1313,-0.3024,-0.0001,960,16.87,-21.05,-46.31,204.71,5.94,6.27,2,52.867,12.925628,77.68656,0,2909.56913139105,0,78.49677,0,3 / 20,165515,2018-08-07 17:02:30:728
-0.6042,-1.8588,7.5597,-2.0303,0.0861,9.5938,1.4997,-2.0263,-1.3495,-0.4296,-0.089,0.5368,928,5.03,-31.28,-38.43,173.7,-1.74,12.42,2,55.716,12.925628,77.68656,0,2909.56913139105,0,78.49677,0,3 / 20,166017,2018-08-07 17:02:31:230
-4.8934,0.3492,13.3351,-3.2732,-3.5144,8.5502,-2.1411,3.6132,4.3117,-0.0669,0.4413,1.5405,884,-14.53,-18.84,-51.93,135.54,21,20.95,2,54.896,12.925628,77.68656,0,2909.56913139105,0,78.49677,0,3 / 20,166515,2018-08-07 17:02:31:728
-5.8451,-2.191,8.2792,-5.355,1.0614,8.1466,-0.7352,-3.0648,-0.2029,1.2427,1.1572,-1.6001,2168,-10.83,-35.28,-40.58,137.38,-5.68,28.52,2,57.364,12.925628,77.68656,0,2909.56913139105,0,78.49677,0,3 / 20,167016,2018-08-07 17:02:32:229
-4.3458,-1.1286,8.9418,-3.712,-1.0686,9.0139,-0.4203,-0.4302,0.2463,-0.0346,-0.6756,-0.8258,1704,5.23,-47.14,-23.14,173.97,4.97,24.92,2,55.598,12.925628,77.68656,0,2909.56913139105,0,78.49677,0,3 / 20,167515,2018-08-07 17:02:32:728
-2.5585,-0.7994,8.8424,-2.2048,-1.0845,9.4939,-0.3248,0.3235,-0.4992,0.2783,0.1617,-0.2124,820,27.76,-47.16,-23.91,203.71,7.15,12.59,2,53.405,12.925628,77.68656,0,2909.56913139105,0,78.49677,0,3 / 20,168016,2018-08-07 17:02:33:229
-2.2718,-1.3453,9.4398,-2.22,-1.2368,9.4717,-0.0847,-0.0469,0.0241,-0.0683,0.0672,0.0003,836,17.54,-6.21,-60.34,195.48,7.25,13.19,2,54.24,12.925628,77.68656,0,2909.56913139105,0,78.49677,0,3 / 20,168515,2018-08-07 17:02:33:728
-2.8189,-1.1507,9.0657,-2.6819,-1.1907,9.3573,-0.2141,-0.0083,-0.2327,0.0688,0.0505,0.0042,872,23.34,-45.17,-28.97,196.22,7.2,15.8,2,53.681,12.925628,77.68656,0,2909.56913139105,0,78.49677,0,3 / 20,169015,2018-08-07 17:02:34:228
-3.2349,-0.946,9.1734,-3.109,-1.043,9.2421,-0.0467,0.083,0.0394,-0.0108,-0.0384,0.0967,876,16.96,-58.15,-33.95,184.89,6.11,18.59,2,59.926,12.925628,77.68656,0,2909.56913139105,0,78.49677,0,3 / 20,169515,2018-08-07 17:02:34:728
-3.2696,-1.0855,9.3632,-3.1415,-1.0923,9.2254,-0.0239,-0.0358,-0.1803,-0.0624,-0.028,-0.0152,872,16.45,-55.64,-33.67,184.02,6.17,18.79,2,54.973,12.925628,77.68656,0,2909.56913139105,0,78.49677,0,3 / 20,170015,2018-08-07 17:02:35:228
-2.926,-1.3698,9.3266,-2.9124,-1.2775,9.2766,-0.0338,-0.0376,-0.0193,-0.0127,-0.0162,-0.056,788,17.43,-52.5,-35.53,185.38,7.49,17.43,2,60.473,12.925628,77.68656,0,2909.56913139105,0,78.49677,0,3 / 20,170515,2018-08-07 17:02:35:728
-2.7315,-1.1849,9.4781,-2.6225,-1.0863,9.3868,-0.1736,-0.1245,-0.0067,0.0592,-0.058,-0.043,788,16.79,-54.05,-35.22,186.85,6.36,15.61,2,61.874,12.925628,77.68656,0,2909.56913139105,0,78.49677,0,3 / 20,171015,2018-08-07 17:02:36:228
-2.5112,-0.7713,9.4529,-2.3006,-0.769,9.5019,-0.1643,-0.0279,-0.0449,0.0885,-0.0287,-0.0446,684,15.93,-54.85,-26.88,189.07,4.75,13.71,2,55.119,12.925628,77.68656,0,2909.56913139105,0,78.49677,0,3 / 20,171515,2018-08-07 17:02:36:728
-2.3077,-0.6534,9.6253,-2.1539,-0.5676,9.5503,-0.1357,-0.1104,0.0227,0.0544,-0.0312,-0.0285,608,19.17,-48.03,-18.51,196.24,3.4,12.73,2,54.602,12.925628,77.68656,0,2909.56913139105,0,78.49677,0,3 / 20,172016,2018-08-07 17:02:37:229
-1.9665,-0.5767,9.4392,-2.0913,-0.3952,9.5729,0.01,0.0113,-0.0005,0.0789,-0.0532,0.0031,536,16.78,-39.54,-17.08,197.54,2.58,12.51,2,53.753,12.925628,77.68656,0,2909.56913139105,0,78.49677,0,3 / 20,172516,2018-08-07 17:02:37:729
-2.0366,-0.5181,9.6397,-2.1342,-0.4967,9.5587,0.1008,0.017,0.0265,-0.0024,-0.007,0.0129,536,17.98,-39.17,-16.44,199.38,2.92,12.68,2,53.801,12.925628,77.68656,0,2909.56913139105,0,78.49677,0,3 / 20,173015,2018-08-07 17:02:38:228
-1.9623,-0.3248,10.2801,-2.1143,-0.2841,9.5718,0.0019,0.0775,0.7613,0.2025,-0.0771,0.0853,504,13.57,-46.34,-20.81,190.88,2.41,12.73,2,53.085,12.925628,77.68656,0,2909.56913139105,0,78.49677,0,3 / 20,173515,2018-08-07 17:02:38:728
-1.7696,0.0493,9.2752,-1.8546,0.0441,9.6296,-0.0484,0.1957,-0.2046,0.1355,-0.1718,-0.1091,376,5.92,-51,-34.54,179.18,-0.26,10.9,2,62.96,12.925628,77.68656,0,2909.56913139105,0,78.49677,0,3 / 20,174015,2018-08-07 17:02:39:228
-1.6373,0.2726,9.6546,-1.6094,0.1269,9.6729,0.1079,-0.035,0.2721,0.0768,-0.0754,-0.0718,144,-6.5,-66.07,-46.44,167.54,-0.74,9.45,0,61.773,12.925628,77.68656,0,2909.56913139105,0,78.49677,0,3 / 20,174515,2018-08-07 17:02:39:728
-1.4847,0.2008,9.6582,-1.5079,0.1568,9.6888,-0.097,0.08,-0.0256,-0.0031,-0.0022,-0.0235,16,-2.65,-77.15,-38.54,173.31,-0.92,8.85,0,62.983,12.925628,77.68656,0,2909.56913139105,0,78.49677,0,3 / 20,175015,2018-08-07 17:02:40:228
-1.5045,0.0972,9.684,-1.5205,0.1063,9.6875,0.0176,-0.0344,-0.0165,-0.0399,0.0022,0.0328,60,-3.87,-78.39,-38.24,172.77,-0.62,8.92,0,53.132,12.925628,77.68656,0,2909.56913139105,0,78.49677,0,3 / 20,175515,2018-08-07 17:02:40:728
-1.7738,0.1936,9.8743,-1.5133,0.0924,9.6887,-0.1238,0.0115,-0.1019,-0.0292,0.053,-0.0397,56,-1.69,-74.91,-38.23,174.1,-0.66,8.68,0,60.326,12.925628,77.68656,0,2909.56913139105,0,78.49677,0,3 / 20,176015,2018-08-07 17:02:41:228
-1.4254,0.0721,10.1317,-1.5749,0.1096,9.6787,0.0177,0.0256,0.4789,0.0009,0.0123,0.0621,104,4.17,-68.7,-33.82,178.74,-0.64,9.24,2,57.763,12.925628,77.68656,0,2909.56913139105,0,78.49677,0,3 / 20,176516,2018-08-07 17:02:41:729
-1.6685,-0.1967,12.135,-1.8709,-1.1744,9.5546,-1.0831,0.7392,3.8835,-0.3957,0.1283,0.319,1424,19.48,-53.67,-33.32,192.48,5.87,10.45,2,57.169,12.925628,77.68656,0,2909.56913139105,0,78.49677,0,3 / 20,177015,2018-08-07 17:02:42:228
0.1853,0.2265,8.4001,-2.4548,0.8313,9.458,2.8362,-0.7625,-1.2519,0.4398,0.4116,-0.4904,476,10.88,-45.94,-26.43,186.18,-3.86,13.22,2,55.581,12.925628,77.68656,0,2909.56913139105,0,78.49677,0,3 / 20,177516,2018-08-07 17:02:42:729
-3.6054,-1.1867,10.6357,-1.5269,0.8001,9.654,-2.2614,-1.6838,0.209,-0.3188,0.2822,-0.8532,304,37.25,-37.39,-25.34,224.92,-6.34,7.52,2,55.746,12.925628,77.68656,0,2909.56913139105,0,78.49677,0,3 / 20,178015,2018-08-07 17:02:43:228
-1.2088,1.0884,6.0921,-1.1619,0.9115,9.6948,0.1811,0.9047,-3.5796,-0.0504,-1.4029,0.0862,324,34.18,-40.95,-24.14,218.95,-5.33,6.83,2,63.4,12.925628,77.68656,0,2909.56913139105,0,78.49677,0,3 / 20,178516,2018-08-07 17:02:43:729
-1.0328,-2.7614,10.3023,-0.1394,-1.0335,9.751,-2.2998,-0.909,0.5595,-0.169,0.2755,1.3619,620,25.81,-40.44,-35.77,211.56,5.38,-0.82,2,64.938,12.925628,77.68656,0,2909.56913139105,0,78.49677,0,3 / 20,179015,2018-08-07 17:02:44:228
0.3564,-1.8906,11.5586,-0.1459,-1.2477,9.7259,0.3337,-0.3733,1.1215,0.7101,0.1853,-0.6509,952,37.65,-33.98,-25.98,225.38,7.31,0.86,2,60.255,12.925628,77.68656,0,2909.56913139105,0,78.49677,0,3 / 20,179515,2018-08-07 17:02:44:728
-0.0242,-0.0482,9.8103,0.4288,-0.3832,9.7898,-0.1602,0.2197,0.7597,-0.1219,0.2043,-0.1936,496,43.84,-35.44,-24.6,231.47,2.24,-2.51,2,62.561,12.925628,77.68656,0,2909.56913139105,0,78.49677,0,3 / 20,180015,2018-08-07 17:02:45:228
0.1912,-0.0129,10.0491,0.3296,0.3174,9.796,-0.2036,-0.2956,0.1256,0.1925,0.1634,0.1096,408,60.15,-26.11,-24.65,247.32,-1.24,-2.5,2,57.502,12.925628,77.68656,0,2909.56913139105,0,78.49677,0,3 / 20,180516,2018-08-07 17:02:45:729
0.2774,0.3618,9.8037,0.2528,0.3789,9.7961,0.0187,-0.0235,-0.0057,0.008,0.0141,-0.0745,380,45.3,-6.91,-31.29,262.73,-2.21,-1.48,2,52.572,12.925628,77.68656,0,2909.56913139105,0,78.49677,0,3 / 20,181015,2018-08-07 17:02:46:228
0.5085,-0.0051,11.9028,-0.0604,0.1581,9.8052,0.3054,0.0803,0.959,-0.2695,0.2639,0.1114,388,48.67,-13.09,-29.01,256.23,-1.84,-0.51,2,52.89,12.925628,77.68656,0,2909.56913139105,0,78.49677,0,3 / 20,181516,2018-08-07 17:02:46:729
0.7479,-0.6468,7.5807,1.5695,-1.497,9.5638,-0.716,1.0033,-1.9521,-0.2796,0.2199,-1.8034,992,44.4,-24.53,-37.67,239.25,8.91,-9.13,2,52.579,12.925628,77.68656,0,2909.56913139105,0,78.49677,0,3 / 20,182015,2018-08-07 17:02:47:228
0.7054,-1.9384,6.9552,0.5499,0.6262,9.7712,0.5472,-2.6728,-2.3238,0.6886,-0.1863,-0.6227,704,52.3,-10.69,-30.5,259.1,-1.44,-2.61,2,51.953,12.925628,77.68656,0,2909.56913139105,0,78.49677,0,3 / 20,182516,2018-08-07 17:02:47:729
-0.2355,-1.149,9.8157,-1.1104,-0.4566,9.7329,-1.5483,-0.8095,2.1499,-0.0184,0.0874,0.4594,652,53.52,-0.93,-26.84,267.13,2.67,6.51,2,50.488,12.925628,77.68656,0,2909.56913139105,0,78.49677,0,3 / 20,183015,2018-08-07 17:02:48:228
-0.6413,0.8765,9.2087,-0.4487,-0.6926,9.7719,-0.1457,1.541,-0.4087,-0.3291,-0.0381,0.4536,684,53.92,-6.79,-28.95,260.6,3.14,2.64,2,54.373,12.925628,77.68656,0,2909.56913139105,0,78.49677,0,3 / 20,183515,2018-08-07 17:02:48:728
-0.299,-0.7473,6.7828,-0.3303,-1.1701,9.731,1.8372,-0.5812,-2.3414,-0.2236,-0.409,0.1327,1060,55.9,-8.6,-33.23,256.57,6.85,1.94,2,54.443,12.925628,77.68656,0,2909.56913139105,0,78.49677,0,3 / 20,184015,2018-08-07 17:02:49:228
0.0967,-2.1803,10.8464,-0.405,-1.2966,9.7121,0.4514,0.0984,-1.676,0.4068,-0.0429,-0.5957,1224,59.33,-3.55,-32.89,261.46,7.6,2.39,2,49.913,12.925628,77.68656,0,2909.56913139105,0,78.49677,0,3 / 20,184515,2018-08-07 17:02:49:728
1.4668,-3.1613,15.0356,-0.4295,-1.454,9.6887,0.8545,-1.0717,4.6469,-0.9081,-0.5654,0.2923,1016,61.54,0.77,-32.57,267.51,5.44,4.44,2,52.054,12.925628,77.68656,0,2909.56913139105,0,78.49677,0,3 / 20,185015,2018-08-07 17:02:50:228
-1.0819,-0.1715,9.9186,-0.5137,-0.4749,9.7817,-0.1834,-0.0876,0.6422,0.2832,0.0732,-0.4846,1224,66.25,-0.35,-33.7,268.38,2.78,3.01,2,52.856,12.925628,77.68656,0,2909.56913139105,0,78.49677,0,3 / 20,185516,2018-08-07 17:02:50:729
0.0326,-0.3421,6.6044,-1.3514,-0.8472,9.6761,-0.121,1.444,-4.9479,-0.4147,-0.0812,0.6535,1072,70.56,3.55,-27.76,271.21,3.96,7.97,2,54.207,12.925628,77.68656,0,2909.56913139105,0,78.49677,0,3 / 20,186015,2018-08-07 17:02:51:228
0.0326,-0.9407,6.4853,-0.8763,-0.4464,9.7572,0.8867,-0.659,-2.8989,0.1801,-0.4383,0.436,1168,72.13,-2.55,-31.09,265.58,3.3,6.62,2,53.915,12.925628,77.68656,0,2909.56913139105,0,78.49677,0,2 / 20,186516,2018-08-07 17:02:51:729
-1.7983,-1.149,9.93,-0.3757,-0.4031,9.7912,-0.6811,-0.6759,-0.338,0.3108,0.2671,-0.8352,1452,72.18,7.84,-27.45,275.09,3.27,1.35,2,57.169,12.925628,77.68656,0,2909.56913139105,0,78.49677,0,2 / 20,187016,2018-08-07 17:02:52:229
-2.455,-2.868,15.0021,-0.8613,-0.581,9.7515,0.1849,-2.1871,2.1064,-0.7048,0.7037,1.721,1344,69.5,-21.91,-21.08,250.85,3.4,5.05,2,58.721,12.925628,77.68656,0,2909.56913139105,0,78.49677,0,2 / 20,187515,2018-08-07 17:02:52:728
-1.4901,-0.6174,10.4489,-0.383,-0.5991,9.7808,-1.0924,0.1732,0.8254,0.437,-0.3023,0.5773,1744,43.57,-53.2,-25.4,217.66,5.12,3.03,2,57.18,12.925628,77.68656,0,2909.56913139105,0,78.49677,0,2 / 20,188015,2018-08-07 17:02:53:228
-0.3469,0.4564,8.6359,-0.8251,-0.5052,9.7588,0.5231,0.8216,-2.6484,-0.2858,0.0368,0.4285,1760,34.32,-56.14,-19.99,209.42,2.95,4.83,2,52.036,12.925628,77.68656,0,2909.56913139105,0,78.49677,0,2 / 20,188515,2018-08-07 17:02:53:728
0.0961,-1.1226,7.8793,-0.6134,-0.8483,9.7506,-0.2141,-0.3616,-2.0692,0.424,-0.1769,0.417,2128,25.39,-57.38,-19.86,202,4.96,3.6,2,58.513,12.925628,77.68656,0,2909.56913139105,0,78.49677,0,2 / 20,189015,2018-08-07 17:02:54:228
2.3496,-1.6248,10.9014,-0.6069,-0.8294,9.7526,2.6352,-0.8453,3.0028,-0.0603,-0.3557,0.3696,2104,21.58,-56.83,-15.3,199.87,4.85,3.56,2,49.624,12.925628,77.68656,0,2909.56913139105,0,78.49677,0,2 / 20,189516,2018-08-07 17:02:54:729
-0.7006,-0.967,11.0343,-0.9289,-0.8689,9.7238,0.5438,0.1466,0.4331,-0.2348,-0.164,0.1775,2176,19.34,-53.87,-10.11,198.14,5.08,5.46,2,48.843,12.925628,77.68656,0,2909.56913139105,0,78.49677,0,2 / 20,190015,2018-08-07 17:02:55:228
-0.0614,-0.2469,10.0138,-0.7983,-0.823,9.7394,0.7213,0.6183,0.2562,-0.0543,-0.0754,-0.3814,2216,10.81,-51.73,-8.75,190.92,4.58,5.13,2,45.519,12.925628,77.68656,0,2909.56913139105,0,78.49677,0,3 / 20,190515,2018-08-07 17:02:55:728
0.9969,-0.6773,9.6535,1.2334,-0.5275,9.7145,-1.4988,2.2056,4.2838,-1.1975,1.7327,-2.0006,1776,42.93,-39.52,-8.8,227.68,0.6,-13.14,2,55.652,12.925628,77.68656,0,2909.56913139105,0,78.49677,0,3 / 20,191016,2018-08-07 17:02:56:229
-0.357,-1.2208,9.7474,-1.8181,0.5264,9.6223,-0.3625,-1.4502,1.5026,0.3363,-0.532,-0.4981,1260,48.09,-20.06,4.77,247.62,-2.45,12.43,2,56.405,12.925628,77.68656,0,2909.56913139105,0,78.49677,0,3 / 20,191515,2018-08-07 17:02:56:728
-3.9316,2.1993,9.2482,-3.0955,1.1198,9.2376,-0.9135,0.3397,0.395,-0.0197,0.4416,-0.502,1096,45.79,0.61,6.11,272.53,-6.56,18.53,2,44.355,12.925628,77.68656,0,2909.56913139105,0,78.49677,0,3 / 20,192015,2018-08-07 17:02:57:228
-2.9739,0.5162,7.3622,-3.084,0.4278,9.2993,0.3177,0.0446,-2.2558,-0.2466,-0.281,-1.0991,820,39.99,15.03,2.16,292.37,-4.5,19.07,2,44.714,12.925628,77.68656,0,2909.56913139105,0,78.49677,0,3 / 20,192516,2018-08-07 17:02:57:729
-0.3499,-0.6061,6.6248,-1.5465,-0.5225,9.6698,-0.4611,0.1037,-1.861,0.6785,-0.447,-0.2071,1380,41.3,19.21,0.3,294.71,3.05,9.09,2,54.643,12.925628,77.68656,0,2909.56913139105,0,78.49677,0,3 / 20,193015,2018-08-07 17:02:58:228
3.8711,-3.5839,14.2892,-0.9498,-0.7864,9.7288,4.2495,-2.5156,4.174,-0.3495,-0.4001,0.7898,1532,43.82,14.17,2.87,287.42,3.5,7.2,2,53.015,12.925628,77.68656,0,2909.56913139105,0,78.49677,0,3 / 20,193516,2018-08-07 17:02:58:729
-2.4597,-0.7581,10.3657,-1.7189,0.175,9.6532,-0.6193,-0.3279,1.2591,-0.0115,-0.1565,0.1702,1480,39.36,23.51,0.84,302,-1.02,10.1,2,58.654,12.925628,77.68656,0,2909.56913139105,0,78.49677,0,3 / 20,194016,2018-08-07 17:02:59:229
-2.7291,-0.229,10.9553,-1.5536,0.501,9.6698,-1.153,-0.6227,0.0242,-0.7089,0.1368,0.5015,1520,42.77,18.37,2.5,292.94,-2.93,9.13,2,54.702,12.925628,77.68656,0,2909.56913139105,0,78.49677,0,4 / 20,194516,2018-08-07 17:02:59:729
-2.6375,0.3073,6.7924,-1.7263,-0.2515,9.6502,-0.6601,0.4742,-3.0009,0.3598,0.0035,0.1894,1588,41.19,15.44,1.56,289.88,2.84,10,2,55.136,12.925628,77.68656,0,2909.56913139105,0,78.49677,0,4 / 20,195015,2018-08-07 17:03:00:228
0.5528,-1.4764,7.7165,-1.2998,-0.6031,9.7014,1.3265,-0.8719,-1.0978,-0.1938,-0.5105,1.0801,1656,45.64,7.1,-1.68,278.15,3.53,7.63,2,56.536,12.925628,77.68656,0,2909.56913139105,0,78.49677,0,4 / 20,195515,2018-08-07 17:03:00:728
1.098,-2.5849,12.7019,-1.3876,-0.5607,9.6918,1.1383,-0.3513,-2.2313,0.4823,-0.4432,-0.0706,1752,43.24,6.54,-3.28,278.3,4.83,9.78,2,52.84,12.925628,77.68656,0,2909.56913139105,0,78.49677,0,4 / 20,196015,2018-08-07 17:03:01:228
-0.5725,-2.631,12.071,-2.523,-0.4982,9.4634,1.7374,-1.8893,2.7223,-0.0429,-0.8335,0.7103,1316,41.63,2.4,-3.28,271.6,3.31,17.89,2,50.007,12.925628,77.68656,0,2909.56913139105,0,78.49677,0,4 / 20,196516,2018-08-07 17:03:01:729
-1.8013,-0.8233,8.5503,-1.7951,-0.6066,9.6219,0.1075,0.0308,-0.4326,0.261,-0.2604,-0.5517,1632,41.36,4.42,-8.56,274.15,4.06,11.6,2,51.161,12.925628,77.68656,0,2909.56913139105,0,78.49677,0,4 / 20,197015,2018-08-07 17:03:02:228
-1.5805,-0.6264,10.1652,-1.3398,-0.4902,9.7023,-0.3382,0.0317,-0.1013,-0.0237,-0.0036,-0.0638,1704,41.44,7.15,-9.2,279.04,2.87,7.86,2,46.539,12.925628,77.68656,0,2909.56913139105,0,78.49677,0,4 / 19,197516,2018-08-07 17:03:02:729
-1.5523,-0.4923,9.6912,-1.2618,-0.5063,9.7119,-0.2672,-0.0028,-0.0006,0.0056,0.0416,-0.1064,1788,40.91,9.16,-9.23,281.81,2.93,7.25,2,49.99,12.925628,77.68656,0,2909.56913139105,0,78.49677,0,4 / 19,198015,2018-08-07 17:03:03:228
-1.6619,-0.4439,9.7025,-1.1678,-0.5269,9.7226,-0.5279,0.0337,0.1228,0.0022,0.0049,0.0804,1820,41.5,9.02,-9.52,281.42,3.08,6.85,2,49.398,12.925628,77.68656,0,2909.56913139105,0,78.49677,0,4 / 19,198516,2018-08-07 17:03:03:729
-0.8317,-0.3188,9.9976,-0.9489,-0.4727,9.7492,0.1285,0.0141,0.9503,-0.1718,-0.0063,0.1056,1848,42.61,6.74,-10.72,278.54,2.76,5.56,2,48.495,12.925628,77.68656,0,2909.56913139105,0,78.49677,0,4 / 19,199015,2018-08-07 17:03:04:228
-1.365,-0.894,9.6337,-1.0798,-0.7753,9.7161,-0.2576,-0.1866,-0.1157,-0.0262,0.0219,-0.1735,1892,40.58,7.95,-8.91,279.92,4.36,6.28,2,52.327,12.925628,77.68656,0,2909.56913139105,0,78.49677,0,5 / 19,199515,2018-08-07 17:03:04:728
-1.2249,-0.8443,9.9563,-0.9957,-1.0876,9.6952,-0.1106,0.1387,0.2855,-0.0523,0.0196,-0.1613,1972,40.98,11.76,-11.41,284.49,6.37,5.86,2,53.547,12.925628,77.68656,0,2909.56913139105,0,78.49677,0,5 / 19,200015,2018-08-07 17:03:05:228
-1.1986,-1.0418,9.3422,-1.0789,-1.1388,9.6804,-0.2509,0.0341,-0.1238,-0.0257,0.0074,-0.0453,1968,38.86,9.73,-8.65,282.57,6.57,6.33,2,56.175,12.925628,77.68656,0,2909.56913139105,0,78.49677,0,5 / 19,200515,2018-08-07 17:03:05:728
-1.1561,-1.1448,9.6355,-0.9247,-1.2431,9.6835,-0.3246,0.166,-0.1337,0.0815,0.0027,-0.5084,2032,37.51,14.07,-8.71,288.35,7.41,5.64,2,53.505,12.925628,77.68656,0,2909.56913139105,0,78.49677,0,5 / 19,201015,2018-08-07 17:03:06:228
-0.3451,-0.1991,6.939,-1.145,-0.8727,9.7004,0.988,0.0585,-1.0647,0.4024,0.0244,-0.0544,1996,35.81,16.38,-8.77,292.57,6.45,6.77,2,53.688,12.925628,77.68656,0,2909.56913139105,0,78.49677,0,5 / 19,201516,2018-08-07 17:03:06:729
-1.784,-0.3954,7.9398,-1.086,-1.6499,9.6057,-0.6924,0.8532,-0.5349,0.0391,-0.1446,-0.154,1972,32.73,22.14,-7.95,301.74,9.69,6.45,2,53.371,12.925628,77.68656,0,2909.56913139105,0,78.49677,0,5 / 19,202015,2018-08-07 17:03:07:228
-2.8997,-1.204,8.7293,-1.3041,-1.1457,9.6518,-1.2156,-0.0773,-0.7566,-0.0399,0.1812,-0.3972,2060,33.55,20.22,-10.39,299.39,6.38,7.1,2,54.8,12.925628,77.68656,0,2909.56913139105,0,78.49677,0,5 / 19,202516,2018-08-07 17:03:07:729
-0.3822,-0.8832,7.343,-1.1895,-1.1345,9.6679,1.6687,-0.4236,-0.4475,0.8152,-0.1181,-0.2241,2060,35.54,18.78,-15.91,296.07,6.64,7.01,2,55.842,12.925628,77.68656,0,2909.56913139105,0,78.49677,0,5 / 19,203015,2018-08-07 17:03:08:228
-2.039,-0.6755,8.3408,-1.3289,-1.1081,9.6528,-1.0498,0.6922,0.1169,0.1297,-0.1373,-0.2772,1960,33.86,21.74,-15.35,301.85,6.49,7.84,2,57.972,12.925628,77.68656,0,2909.56913139105,0,78.49677,0,5 / 19,203516,2018-08-07 17:03:08:729
-1.8773,-0.1434,8.1978,-0.9857,-1.4147,9.6539,-0.8488,1.1609,-1.4266,-0.2368,0.2451,-0.5556,2116,36.83,22.65,-19.01,299.57,7.4,5.14,2,53.835,12.925628,77.68656,0,2909.56913139105,0,78.49677,0,5 / 19,204015,2018-08-07 17:03:09:228
0.187,-2.367,8.2355,-1.2574,-1.9532,9.5276,1.1157,-1.4448,2.9007,0.3988,0.4171,-0.6543,2248,30.71,25.91,-17.61,306.65,11.49,7.52,2,59.857,12.925628,77.68656,0,2909.56913139105,0,78.49677,0,4 / 19,204516,2018-08-07 17:03:09:729
-2.0886,-3.1649,13.5279,-1.2839,-2.3361,9.4374,0.1411,-1.0984,5.2454,-0.7781,0.2685,0.295,1948,29.31,28.16,-15.8,311.31,11.27,6.61,2,58.7,12.925628,77.68656,0,2909.56913139105,0,78.49677,0,4 / 19,205015,2018-08-07 17:03:10:228
-1.7211,-0.709,9.9102,-1.1637,-1.1789,9.6657,-0.8309,0.7152,-0.4796,0.0549,-0.0027,-0.0936,2056,27.23,29.08,-21.11,316.69,7.12,6.83,2,55.262,12.925628,77.68656,0,2909.56913139105,0,78.49677,0,4 / 19,205515,2018-08-07 17:03:10:728
-1.9564,-0.8652,10.4202,-1.4914,-1.6702,9.5476,-1.0046,1.2689,-0.4363,-0.3398,0.5871,-0.1038,1836,16.64,31.65,-20.73,332.91,8.73,6.78,2,47.811,12.925628,77.68656,0,2909.56913139105,0,78.49677,0,4 / 19,206016,2018-08-07 17:03:11:229
-2.1246,0.0727,4.5646,-0.8991,-1.0336,9.7105,0.147,-0.2083,-4.8907,1.1575,0.1375,-0.1968,2176,17.8,31.81,-24.42,331.66,6.05,5.29,2,50.614,12.925628,77.68656,0,2909.56913139105,0,78.49677,0,4 / 19,206516,2018-08-07 17:03:11:729
-0.445,-2.9679,10.0982,-1.6019,-1.8339,9.4995,1.1946,-1.0683,0.4898,0.6073,0.2602,-0.5066,1832,17.89,32.93,-16.38,331.67,12.45,9.23,2,50.055,12.925628,77.68656,0,2909.56913139105,0,78.49677,0,4 / 19,207016,2018-08-07 17:03:12:229
-0.8802,-4.7504,10.835,-1.1949,-2.2195,9.4771,-1.0456,-2.6746,2.7112,0.268,-0.2763,0.4424,1668,22.45,35.56,-12.91,327.35,13.08,7.19,2,55.568,12.925628,77.68656,0,2909.56913139105,0,78.49677,0,4 / 19,207515,2018-08-07 17:03:12:728
-0.8329,-3.123,12.4535,-1.0519,-1.8052,9.5815,-1.4342,-1.0676,3.392,-0.1253,0.1091,0.1762,1928,24.59,37.88,-13.81,325.78,10.61,6.27,2,51.422,12.925628,77.68656,0,2909.56913139105,0,78.49677,0,4 / 19,208016,2018-08-07 17:03:13:229
-1.0927,-1.9498,11.1061,-1.3952,-1.9942,9.4998,0.2722,0.0286,1.6385,-0.2542,-0.6105,0.2259,1748,23.76,40.29,-16.32,328.7,11.73,8.35,2,53.084,12.925628,77.68656,0,2909.56913139105,0,78.49677,0,4 / 19,208515,2018-08-07 17:03:13:728
0.1667,-1.1514,7.9254,-1.7275,0.9007,9.6112,0.1114,-0.704,0.3742,0.8933,-0.6352,-0.7948,1852,25.13,40.16,-32.38,336.29,-5.27,10.19,2,50.344,12.925628,77.68656,0,2909.56913139105,0,78.49677,0,4 / 19,209016,2018-08-07 17:03:14:229
-3.2726,0.1601,7.8817,-3.8671,-0.166,9.0104,-0.1086,0.0872,-0.4599,-0.0369,-0.2218,0.09,1252,12.71,41.53,-33.58,2.03,0.97,23.23,2,55.286,12.925628,77.68656,0,2909.56913139105,0,78.49677,0,4 / 19,209515,2018-08-07 17:03:14:728
-3.5467,0.2008,8.4067,-2.9769,-0.4581,9.3327,-0.1821,0.0403,-1.4527,-0.14,-0.0782,-0.05,1216,15.73,41.99,-27.64,350.78,2.17,17.9,2,48.895,12.925628,77.68656,0,2909.56913139105,0,78.49677,0,4 / 19,210016,2018-08-07 17:03:15:229
1.049,-1.3884,11.2258,-2.5501,0.0015,9.4693,0.4125,2.6336,1.5653,0.0851,-0.7358,-0.3088,1532,14.27,43.17,-29.84,354.37,0.23,17.68,2,52.829,12.925628,77.68656,0,2909.56913139105,0,78.49677,0,4 / 19,210515,2018-08-07 17:03:15:728
-2.8955,-0.0656,9.7283,-2.2337,-0.8761,9.5086,-0.7264,0.6391,0.7703,-0.2828,-0.7685,-0.102,1388,11.63,42.7,-23.4,352.67,4.17,15.82,2,51.158,12.925628,77.68656,0,2909.56913139105,0,78.49677,0,4 / 19,211015,2018-08-07 17:03:16:228
-3.7071,-1.0622,8.4605,-2.4235,-0.6151,9.4825,-0.6752,-0.6942,-1.2382,0.149,0.0995,0.0914,1384,10.73,42.89,-25.58,353.81,4.09,13.89,2,67.944,12.925628,77.68656,0,2909.56913139105,0,78.49677,0,4 / 19,211515,2018-08-07 17:03:16:728
-2.5908,-0.0662,7.2467,-2.0977,-0.4418,9.5695,0.9221,-0.4358,-0.3926,-0.2345,-0.129,-0.1174,1616,13.1,42.87,-27.08,350.57,2.58,12.36,2,55.975,12.925628,77.68656,0,2909.56913139105,0,78.49677,0,4 / 19,212015,2018-08-07 17:03:17:228
-1.7606,-1.5314,9.4482,-2.137,-0.7962,9.5378,0.4928,-0.8573,0.1533,0.0478,-0.5828,0.194,1396,15.18,42.54,-24.56,348.54,4.89,14.63,2,60.353,12.925628,77.68656,0,2909.56913139105,0,78.49677,0,4 / 19,212516,2018-08-07 17:03:17:729
-2.8374,-0.9311,11.3701,-1.6591,-0.4382,9.6553,-0.9269,-0.2584,1.1616,0.1025,0.2614,-0.1,1632,13.66,41.86,-26.44,346.34,2.83,8.8,2,67.528,12.925628,77.68656,0,2909.56913139105,0,78.49677,0,4 / 19,213015,2018-08-07 17:03:18:228
-2.8554,-0.2074,9.5325,-2.1243,-0.9663,9.5249,-0.2704,0.7222,-0.1512,0.0341,0.0795,0.2332,1512,13.97,41.82,-24.58,348.12,5.65,12.57,2,66.266,12.925628,77.68656,0,2909.56913139105,0,78.49677,0,4 / 19,213516,2018-08-07 17:03:18:729
-2.3293,-0.6318,7.4969,-2.2846,-0.5973,9.5181,-0.1205,0.0076,-1.9107,0.1222,0.0015,-0.2007,1308,16.02,41.08,-25.46,346.02,3.73,13.48,2,68.992,12.925628,77.68656,0,2909.56913139105,0,78.49677,0,4 / 19,214015,2018-08-07 17:03:19:228
0.4905,-0.2481,10.0844,-1.3559,0.1513,9.7113,1.8473,0.3553,0.1321,-0.0924,-0.3637,0.1397,1980,12.97,39.57,-30.15,347.83,-0.88,7.95,2,59.497,12.925628,77.68656,0,2909.56913139105,0,78.49677,0,4 / 19,214515,2018-08-07 17:03:19:728
-0.3648,-2.8225,11.5916,-1.3828,-1.059,9.6507,-0.0777,-0.649,3.7225,-0.1246,-0.6394,0.2725,1704,17.19,41,-26.36,342.29,5.91,10.29,2,45.337,12.92528,77.689224,0,2909.56913139105,0,2258.0613,0,4 / 19,215015,2018-08-07 17:03:20:228
-3.0212,-1.2651,9.2782,-1.6169,-0.8508,9.6349,-1.2196,-0.4898,-0.1223,0.2925,-0.034,-0.208,1668,18.87,38.65,-30.33,338.85,5.8,9.6,2,57.446,12.92528,77.689224,0,2909.56913139105,0,2258.0613,0,4 / 19,215515,2018-08-07 17:03:20:728
-1.5871,-0.6761,10.5345,-1.3728,-1.0248,9.6559,-0.6234,0.2438,-0.6732,-0.4667,0.2609,0.3722,1900,15.29,38.76,-33.81,343.38,4.59,6.99,2,64.74,12.92528,77.689224,0,2909.56913139105,0,2258.0613,0,4 / 19,216015,2018-08-07 17:03:21:228
0.3989,-0.0811,8.2522,-0.8851,-0.7545,9.7374,1.3827,0.0213,-0.0808,-0.0347,-0.3969,1.048,2000,30.85,33.87,-34.38,318.19,4.41,5.19,2,58.538,12.92528,77.689224,0,2909.56913139105,0,2258.0613,0,4 / 19,216515,2018-08-07 17:03:21:728
0.8556,0.6778,9.5762,-0.5333,0.3052,9.7874,1.4599,0.6865,-0.6151,0.2703,0.3635,-0.3893,2264,38.92,26.84,-36.64,306.17,-0.84,1.98,2,55.326,12.92528,77.689224,0,2909.56913139105,0,2258.0613,0,4 / 19,217015,2018-08-07 17:03:22:228
0.4265,-3.5228,14.3389,-0.7213,-1.6489,9.6401,0.6161,-1.2776,4.1803,-0.4431,-0.1698,0.5999,1964,39.8,25.71,-31.66,297.79,9.68,4.28,2,56.368,12.92528,77.689224,0,2909.56913139105,0,2258.0613,0,4 / 19,217515,2018-08-07 17:03:22:728
-1.0711,0.1206,10.2729,0.2942,-0.7811,9.7711,-0.8565,0.7024,1.516,-0.2991,0.183,-0.168,2568,43.17,20.15,-33.4,291.6,4.57,-1.72,2,48.639,12.92528,77.689224,0,2909.56913139105,0,2258.0613,0,4 / 19,218016,2018-08-07 17:03:23:229
-1.5182,0.5545,6.7517,-1.1283,-0.1577,9.7403,-0.379,0.6808,-2.8809,-0.2565,0.2659,-0.0121,2580,44.08,19.71,-29.05,295.96,0.11,5.62,2,45.528,12.92528,77.689224,0,2909.56913139105,0,2258.0613,0,4 / 19,218515,2018-08-07 17:03:23:728
-1.2674,1.0543,2.3009,-0.6516,1.3649,9.6893,-0.12,-1.7428,-5.6389,1.3515,-1.429,0.2112,1932,42.63,20.83,-28.78,301.63,-8,3.85,2,42.743,12.92528,77.689224,0,2909.56913139105,0,2258.0613,0,4 / 19,219015,2018-08-07 17:03:24:228
2.9488,-2.0569,12.3116,0.5909,-0.7911,9.7568,2.12,0.9047,0.7159,-0.3517,0.0976,-0.5054,2664,44.14,21.17,-26.89,293.09,3.62,-3.46,2,42.794,12.92528,77.689224,0,2909.56913139105,0,2258.0613,0,4 / 19,219515,2018-08-07 17:03:24:728
1.6786,-3.952,13.5997,0.018,-1.1941,9.7337,1.5467,-2.3353,4.8693,-0.3857,0.2756,0.7543,2500,45.53,26.31,-21.03,297.31,5.47,-1.18,2,49.895,12.92528,77.689224,0,2909.56913139105,0,2258.0613,0,4 / 19,220015,2018-08-07 17:03:25:228
-1.5697,0.3456,10.8272,-0.1825,-0.7707,9.7746,-0.9173,0.9811,0.9809,0.2522,-0.0232,-0.2852,2472,52.19,20.97,-19.92,290.12,5.46,1.15,2,56.747,12.92528,77.689224,0,2909.56913139105,0,2258.0613,0,4 / 19,220516,2018-08-07 17:03:25:729
0.1613,-0.2517,10.2472,-0.7448,-0.4307,9.7688,-0.5787,1.5712,-2.4071,-0.2263,-0.0454,0.131,2272,51.81,26.75,-15.33,297.27,2.52,4.36,2,52.933,12.92528,77.689224,0,2909.56913139105,0,2258.0613,0,4 / 19,221015,2018-08-07 17:03:26:228
-1.1968,0.9561,6.1208,0.4122,-0.8522,9.7609,-1.6264,1.801,-3.4542,0.1888,0.021,0.2473,2568,52.87,23.68,-18.69,292.44,5.74,-2.72,2,51.768,12.92528,77.689224,0,2909.56913139105,0,2258.0613,0,4 / 19,221515,2018-08-07 17:03:26:728
0.7611,-2.0941,8.0649,-0.3215,-1.0767,9.7421,1.2362,-1.441,-0.1044,0.366,0.2327,-0.2034,2396,51.95,21.61,-13.43,291.45,6.3,1.89,2,52.554,12.92528,77.689224,0,2909.56913139105,0,2258.0613,0,4 / 19,222015,2018-08-07 17:03:27:228
0.463,-2.1898,11.7352,-0.3988,-0.6369,9.7778,-0.9933,0.793,1.1166,-0.7875,-0.3113,-0.0349,2268,48.44,22.4,-11.03,293.96,3.72,2.34,2,55.267,12.92528,77.689224,0,2909.56913139105,0,2258.0613,0,5 / 19,222516,2018-08-07 17:03:27:729
-1.2261,-0.205,10.173,-0.1673,-0.9652,9.7576,-1.0781,0.6904,0.5306,0.0638,-0.1844,0.0283,2428,49.77,17.76,-12.21,288.4,5.94,1.5,2,54.51,12.92528,77.689224,0,2909.56913139105,0,2258.0613,0,5 / 19,223015,2018-08-07 17:03:28:228
-2.4998,-0.1649,7.8859,-0.7957,-1.5685,9.6476,-2.3675,1.8454,-1.3266,0.061,0.4038,0.8268,2296,50.75,10.97,-10.28,279.75,9.2,4.71,2,58.714,12.92528,77.689224,0,2909.56913139105,0,2258.0613,0,5 / 19,223516,2018-08-07 17:03:28:729
0.9694,-2.7357,6.8319,-1.6598,-1.8851,9.4795,-0.5504,-1.271,-3.235,0.4102,0.0484,0.2737,2148,55.43,-10.23,-7.54,255.76,12.45,9.52,2,61.252,12.92528,77.689224,0,2909.56913139105,0,2258.0613,0,5 / 19,224015,2018-08-07 17:03:29:228
-1.2603,0.9574,10.252,-1.5659,0.7711,9.6501,0.3074,0.0522,0.8774,0.2037,-0.3356,-0.6454,1880,51.56,17.97,-11.24,291.53,-4.2,10.23,2,64.225,12.92528,77.689224,0,2909.56913139105,0,2258.0613,0,5 / 19,224515,2018-08-07 17:03:29:728
-3.2127,1.8372,9.6588,-1.0588,1.2705,9.6662,-1.699,0.5533,-3.8506,-0.608,-0.3181,0.7511,1412,38.12,25.32,-15.91,308.2,-9.13,7.54,2,62.125,12.92528,77.689224,0,2909.56913139105,0,2258.0613,0,5 / 19,225015,2018-08-07 17:03:30:228
-1.778,-1.1849,8.6281,-1.9091,1.0161,9.5652,0.2056,-2.4591,-0.0295,-0.2128,-0.3848,1.9179,1320,43.54,7.55,-8.54,283.27,-5.95,11.29,2,59.964,12.92528,77.689224,0,2909.56913139105,0,2258.0613,0,5 / 19,225515,2018-08-07 17:03:30:728
-2.4621,0.6239,9.2351,-2.4293,1.5832,9.3682,1.0857,-2.1434,-0.2742,-0.2996,-0.2989,0.803,896,39.77,-8.72,-7.56,261.06,-9.72,16.17,2,64.891,12.92528,77.689224,0,2909.56913139105,0,2258.0613,0,5 / 19,226015,2018-08-07 17:03:31:228
-1.1256,-0.0865,10.0563,-1.4474,0.3688,9.6922,0.2274,0.0963,0.4839,0.1407,-0.2582,1.1135,852,36.29,-23.97,-11.85,235.4,-2.16,8.49,2,59.927,12.92528,77.689224,0,2909.56913139105,0,2258.0613,0,5 / 19,226515,2018-08-07 17:03:31:728
0.0643,0.4617,9.5487,-0.3361,0.8125,9.7672,0.5959,-0.1845,-0.1633,-0.1221,-0.0619,0.3632,744,34.9,-30.89,-8.73,229.08,-4.75,1.97,2,59.154,12.92528,77.689224,0,2909.56913139105,0,2258.0613,0,5 / 19,227015,2018-08-07 17:03:32:228
-0.6222,0.275,10.3107,-0.549,0.6436,9.7701,-0.0641,-0.329,0.3516,-0.0585,0.0198,0.0946,832,33.05,-33.74,-6.89,224.31,-3.76,3.22,2,63.26,12.92528,77.689224,0,2909.56913139105,0,2258.0613,0,5 / 19,227515,2018-08-07 17:03:32:728
-0.4791,0.6239,9.8887,-1.2776,0.8492,9.6859,0.6305,-0.2689,0.1813,-0.0271,0.1171,0.2847,876,26.09,-38.31,-5.45,214.08,-4.97,7.51,2,62.857,12.92528,77.689224,0,2909.56913139105,0,2258.0613,0,5 / 19,228015,2018-08-07 17:03:33:228
-0.873,0.6832,9.6828,-1.1076,0.9058,9.7017,0.4614,-0.2342,0.1107,-0.124,-0.1604,0.289,1000,19.79,-40.45,-5.25,206.18,-5.63,7.21,2,55.993,12.92528,77.689224,0,2909.56913139105,0,2258.0613,0,5 / 19,228515,2018-08-07 17:03:33:728
-0.7144,0.6886,9.7379,-0.8942,0.8153,9.7317,0.1323,-0.1263,0.0442,0.0281,0.0853,0.015,1020,18.93,-39.47,-5.27,205.76,-4.76,5.06,2,59.228,12.92528,77.689224,0,2909.56913139105,0,2258.0613,0,5 / 19,229015,2018-08-07 17:03:34:228
0.4211,0.7502,9.3925,-1.3012,0.4918,9.7075,2.1796,-0.409,0.6064,0.1394,0.1908,-1.2668,964,26.31,-29.98,-11.7,219.85,-3,6.98,2,67.055,12.92528,77.689224,0,2909.56913139105,0,2258.0613,0,5 / 19,229515,2018-08-07 17:03:34:728
-3.7616,1.1363,9.1345,-1.4949,0.431,9.6825,-0.8026,-0.3632,-0.2704,0.1341,-0.089,-0.9015,1144,31.07,-20.12,-11.98,236.24,-2.52,8.78,2,66.336,12.92528,77.689224,0,2909.56913139105,0,2258.0613,0,5 / 19,230015,2018-08-07 17:03:35:228
-1.0256,-0.0847,9.8983,-1.4865,0.097,9.6928,0.4391,-0.0313,0.1117,-0.0951,-0.339,-0.5666,1348,31.19,-25.3,-14.11,228.84,-1.21,9.9,2,66.498,12.92528,77.689224,0,2909.56913139105,0,2258.0613,0,5 / 19,230516,2018-08-07 17:03:35:729
-0.9173,-0.7126,8.8676,-0.4558,0.4627,9.7851,-0.099,-1.3675,-0.3621,-0.2027,0.8093,-2.1915,1264,44.26,13.64,-18.48,289.1,-2.7,2.67,2,67.155,12.92528,77.689224,0,2909.56913139105,0,2258.0613,0,5 / 19,231015,2018-08-07 17:03:36:228
-0.2056,-1.4704,8.9897,-1.2315,-0.1373,9.7281,0.7466,-1.1689,-0.547,0.0853,-0.1331,-0.5276,1204,33.31,23.84,-18.47,308.08,0.74,7.76,2,66.127,12.92528,77.689224,0,2909.56913139105,0,2258.0613,0,5 / 19,231515,2018-08-07 17:03:36:728
-0.8365,-1.0759,10.1802,-1.2193,-0.1478,9.7294,0.0545,-0.5925,0.102,0.0618,0.0777,-0.8558,1360,19.81,28.36,-19.4,327.72,0.86,7.14,2,66.666,12.92528,77.689224,0,2909.56913139105,0,2258.0613,0,5 / 19,232015,2018-08-07 17:03:37:228
0.5785,-0.5869,10.8913,-0.4806,-0.0953,9.7944,1.2499,-0.4819,0.2318,-0.181,0.0136,-1.3737,1772,-0.83,23.28,-20.72,5.08,0.56,2.81,2,67.23,12.92528,77.689224,0,2909.56913139105,0,2258.0613,0,5 / 19,232515,2018-08-07 17:03:37:728
-0.5534,-0.0895,9.7785,-0.2293,-0.0685,9.8037,-0.2699,-0.0743,0.0121,-0.0644,0.0356,-0.3663,2048,-12.51,10.64,-22.09,50.88,0.15,1.2,2,68.8,12.92528,77.689224,0,2909.56913139105,0,2258.0613,0,5 / 19,233015,2018-08-07 17:03:38:228
-1.1166,-1.3644,10.2634,-0.0917,-0.4944,9.7938,-0.8723,-0.8616,-0.0132,-0.0443,0.2348,0.1239,2216,-11.09,8.87,-22.98,55.06,2.89,0.54,2,67.961,12.92528,77.689224,0,2909.56913139105,0,2258.0613,0,5 / 19,233516,2018-08-07 17:03:38:729
-1.0753,-3.7084,11.7538,-0.3967,-0.6515,9.7769,-1.3533,-2.2584,3.471,-0.2838,0.4628,1.3303,2164,-7.08,13.61,-23.25,28.99,2.73,0.35,2,70.634,12.92528,77.689224,0,2909.56913139105,0,2258.0613,0,5 / 19,234015,2018-08-07 17:03:39:228
0.0284,-0.0201,8.8293,-1.075,0.0277,9.7475,0.598,0.3049,-0.758,-0.3614,0.2089,1.6978,2480,18.38,21.07,-20.92,323.37,-0.75,5.68,2,66.437,12.92528,77.689224,0,2909.56913139105,0,2258.0613,0,5 / 19,234516,2018-08-07 17:03:39:729
-0.8622,-3.2762,10.1143,-1.5997,-0.3858,9.6676,-0.5361,-1.7589,-0.5376,0.1796,-0.8768,0.265,1860,19.08,14.97,-19.62,314.02,2.84,12.32,2,63.962,12.92528,77.689224,0,2909.56913139105,0,2258.0613,0,5 / 19,235015,2018-08-07 17:03:40:228
-0.8419,-0.7126,8.5384,-0.832,-0.5042,9.7583,0.0161,-0.7677,0.8591,0.3491,-0.2776,-0.9377,1420,18.63,10.03,-19.28,297.28,2.95,4.87,2,63.645,12.92528,77.689224,0,2909.56913139105,0,2258.0613,0,5 / 19,235515,2018-08-07 17:03:40:728
-0.7425,-0.4361,9.7911,-0.6836,-0.2959,9.7783,-0.0719,-0.139,-0.0551,-0.0262,0.0148,-0.0686,916,22.18,22.9,-36.64,318.48,1.61,3.95,2,64.328,12.92528,77.689224,0,2909.56913139105,0,2258.0613,0,5 / 19,236016,2018-08-07 17:03:41:229
-1.0765,-0.7012,9.7444,-0.9927,-0.6472,9.7348,-0.0461,-0.0704,-0.0347,-0.0621,0.0569,-0.0702,924,18.1,24.5,-33.95,326.2,3.78,5.82,2,58.61,12.92528,77.689224,0,2909.56913139105,0,2258.0613,0,5 / 19,236515,2018-08-07 17:03:41:728
-1.8025,-0.3559,9.766,-1.2387,-0.7857,9.6963,-0.37,0.347,-0.122,-0.0019,0.0835,-0.0773,960,22.93,16.37,-26.98,304.98,4.6,7.28,2,58.517,12.92528,77.689224,0,2909.56913139105,0,2258.0613,0,5 / 19,237015,2018-08-07 17:03:42:228
-1.7367,-2.2485,10.4364,-2.2201,-1.6228,9.4132,0.6,-0.6215,0.2905,0.2626,-0.0853,-0.5375,1228,8.17,7.57,-20.1,325.11,9.91,13.97,2,59.583,12.92528,77.689224,0,2909.56913139105,0,2258.0613,0,5 / 19,237515,2018-08-07 17:03:42:728
-1.924,-0.4852,10.1532,-1.9693,-0.8114,9.5726,-0.0787,0.3,0.6686,-0.1897,0.1755,-0.08,992,6.29,5.21,-23.21,337.63,4.75,11.62,2,56.537,12.92528,77.689224,0,2909.56913139105,0,2258.0613,0,5 / 19,238016,2018-08-07 17:03:43:229
-1.7433,-1.0047,9.5685,-1.8989,-0.883,9.5804,0.1692,0.0126,0.1055,-0.0333,0.0221,0.0241,888,5.67,4.34,-22.91,323.5,5.08,11.26,2,55.786,12.92528,77.689224,0,2909.56913139105,0,2258.0613,0,5 / 19,238515,2018-08-07 17:03:43:728
-2.0635,-1.1466,10.0838,-1.9573,-1.042,9.5527,-0.0837,-0.0995,0.2844,-0.0367,0.0003,-0.0059,916,6.92,6.26,-23.21,327.2,5.97,11.58,2,53.802,12.92528,77.689224,0,2909.56913139105,0,2258.0613,0,5 / 19,239015,2018-08-07 17:03:44:228
-1.8827,-1.1519,9.4906,-1.9741,-0.9332,9.5605,-0.0983,-0.0466,-0.0826,0.1361,-0.0241,0.0166,948,5.76,6.86,-22.62,345.18,5.92,11.74,2,61.392,12.92528,77.689224,0,2909.56913139105,0,2258.0613,0,0 / 26,239516,2018-08-07 17:03:44:729
-3.0607,-0.7749,9.3781,-2.928,-0.5452,9.3434,0.0963,-0.3007,-0.1713,0.0698,0.0445,-0.0317,824,5.99,5.42,-24.77,26.14,3.19,17.4,2,62.942,12.92528,77.689224,0,2909.56913139105,0,2258.0613,0,0 / 26,240016,2018-08-07 17:03:45:229
-3.764,-0.6348,9.034,-3.6748,-0.4763,9.0796,-0.001,-0.0817,-0.2628,0.0047,0.0981,-0.4066,752,5.09,5.46,-27.26,53.74,2.27,21.74,2,64.714,12.92528,77.689224,0,2909.56913139105,0,2258.0613,0,0 / 26,240515,2018-08-07 17:03:45:728
-3.0553,-1.356,9.6229,-2.6696,-1.4035,9.3313,-0.2912,-0.0471,-0.0772,-0.1003,-0.4015,-0.4013,776,1.11,0.57,-22.67,112.43,8.23,15.97,2,61.428,12.92528,77.689224,0,2909.56913139105,0,2258.0613,0,0 / 26,241015,2018-08-07 17:03:46:228
-2.0366,-1.5242,9.5703,-1.849,-1.4859,9.5154,-0.161,0.0055,0.028,0.0203,-0.0787,-0.0956,860,0.47,-0.63,-22.98,135.15,8.72,11,2,54.48,12.92528,77.689224,0,2909.56913139105,0,2258.0613,0,2 / 26,241515,2018-08-07 17:03:46:728
-1.6212,-1.6829,9.6523,-1.951,-1.4757,9.4966,0.1182,-0.0486,0.1554,0.0459,-0.0038,0.0154,908,0.21,0.56,-23.3,117.99,8.82,11.63,2,54.567,12.92528,77.689224,0,2909.56913139105,0,2258.0613,0,2 / 26,242015,2018-08-07 17:03:47:228
-1.1435,-1.5614,10.0694,-1.6786,-1.3192,9.5714,-1.0108,-0.1921,1.8749,0.002,-0.1178,0.6627,1036,-1.19,2.06,-19.01,96.85,7.73,9.95,2,55.931,12.92528,77.689224,0,2909.56913139105,0,2258.0613,0,3 / 26,242517,2018-08-07 17:03:47:730
-2.2131,-1.9821,7.2838,-2.5516,-1.6806,9.3186,0.0061,0.0548,-1.9232,0.4677,-0.2648,0.0251,1684,-5.57,5.19,-22.53,85.95,11.41,16.24,2,62.594,12.92528,77.689224,0,2909.56913139105,0,2258.0613,0,3 / 26,243016,2018-08-07 17:03:48:229
-1.4308,-1.5344,9.575,-2.1056,-1.176,9.5055,0.6083,-0.1182,0.255,-0.1152,0.1888,0.2011,1504,-4.56,9.16,-23.47,56.09,6.64,11.82,2,62.203,12.92528,77.689224,0,2909.56913139105,0,2258.0613,0,3 / 26,243515,2018-08-07 17:03:48:728
-2.1275,-1.4225,9.9964,-2.5328,-1.2713,9.3882,0.2154,0.0231,0.177,-0.0076,0.1375,0.0782,1520,-5.12,9.57,-21.32,53.77,7.5,14.62,2,60.106,12.92528,77.689224,0,2909.56913139105,0,2258.0613,0,3 / 26,244016,2018-08-07 17:03:49:229
-2.616,-1.0694,8.9508,-2.7119,-1.0887,9.3611,0.1691,0.0388,-0.0914,0.043,0.0487,-0.0075,1532,-4.54,9.86,-24.09,56.73,6.37,16.16,2,56.963,12.92528,77.689224,0,2909.56913139105,0,2258.0613,0,3 / 26,244517,2018-08-07 17:03:49:730
-2.2604,0.111,8.4103,-2.5611,-1.3588,9.3683,0.142,1.6661,-1.4347,-0.6366,-0.0612,0.1125,1836,-5.18,7.91,-22.54,62.26,6.1,15.36,2,55.364,12.92528,77.689224,0,2909.56913139105,0,2258.0613,0,3 / 26,245018,2018-08-07 17:03:50:231
-1.7552,-1.5147,10.261,-0.8498,-0.3324,9.7641,-2.3973,-1.1119,1.0937,0.5925,-1.0993,1.1167,2276,1.26,14.03,-19.67,3.17,1.94,4.97,2,59.29,12.92528,77.689224,0,2909.56913139105,0,2258.0613,0,3 / 26,245516,2018-08-07 17:03:50:729
-1.1184,-1.1693,10.3244,-1.5444,-0.2096,9.682,1.0675,-1.4139,0.4263,0.0514,0.9054,-0.5922,2772,16.62,11.58,-17.48,309.38,1.22,9.06,2,61.097,12.92528,77.689224,0,2909.56913139105,0,2258.0613,0,3 / 26,246015,2018-08-07 17:03:51:228
-1.3548,-0.147,9.5044,-1.8089,0.14,9.6374,0.4009,-0.1921,-0.1558,0.228,-0.1107,-0.04,2488,22.89,2.73,-12.64,278.57,-0.09,11.04,2,51.742,12.92528,77.689224,0,2909.56913139105,0,2258.0613,0,3 / 26,246515,2018-08-07 17:03:51:728
-2.7159,0.8311,8.6138,-2.8523,0.999,9.3293,0.068,-0.0554,-0.2618,0.2119,0.2453,-0.6383,2392,21.82,6.25,-13,294.6,-5.85,17,2,47.937,12.92528,77.689224,0,2909.56913139105,0,2258.0613,0,3 / 26,247015,2018-08-07 17:03:52:228
-4.9383,-1.0945,8.3624,-4.8399,-1.0362,8.4659,-0.0121,0.0076,-0.0709,-0.229,0.1805,-0.1794,1196,15.15,0.54,-7.21,268.87,5.08,29.15,2,45.989,12.92528,77.689224,0,2909.56913139105,0,2258.0613,0,3 / 26,247515,2018-08-07 17:03:52:728
-5.0886,-1.5853,8.7939,-4.9686,-1.4815,8.324,0.2555,-0.0114,0.2794,-0.1668,0.0764,-0.181,796,14.56,0.7,-7.53,263.53,7.88,30.64,2,50.918,12.92528,77.689224,0,2909.56913139105,0,2258.0613,0,3 / 26,248015,2018-08-07 17:03:53:228
-4.3458,-3.3492,9.1453,-4.7046,-0.7826,8.5688,-0.3249,-1.9943,0.7216,-0.1192,-0.1641,0.7456,1916,2.31,10.26,-22.41,47.89,5.27,29.14,2,57.262,12.92528,77.689224,0,2909.56913139105,0,2258.0613,0,3 / 26,248516,2018-08-07 17:03:53:729
-2.103,-0.7611,7.8249,-3.8746,-1.0893,8.9427,2.0075,-0.2605,-1.6807,-0.9654,-0.6171,2.3172,1596,10.93,19.27,-16.73,348.68,6.38,23.43,2,60.807,12.92528,77.689224,0,2909.56913139105,0,2258.0613,0,3 / 26,249015,2018-08-07 17:03:54:228
-1.2806,0.7233,10.8182,-1.836,-1.8024,9.4631,0.4407,1.586,0.5241,0.1281,-0.7768,0.6096,1384,32.12,13.5,-14.08,286.93,11.64,13.31,2,58.345,12.92528,77.689224,0,2909.56913139105,0,2258.0613,0,3 / 26,249515,2018-08-07 17:03:54:728
-0.8101,0.5677,10.6357,-1.2668,-0.7948,9.6919,0.967,1.1808,0.5511,-0.0951,0.5807,-0.6312,1808,32.37,12.41,-16.85,289.16,4.65,7.45,2,63.517,12.92528,77.689224,0,2909.56913139105,0,2258.0613,0,3 / 26,250015,2018-08-07 17:03:55:228
-2.1497,0.4157,8.372,-1.9039,0.0802,9.6197,2.1208,-2.4169,0.3804,-0.0569,-0.6584,-0.3942,1768,29.56,16.94,-13.85,302.72,-0.47,11.2,2,65.665,12.92528,77.689224,0,2909.56913139105,0,2258.0613,0,3 / 26,250515,2018-08-07 17:03:55:728
-2.826,1.918,11.1205,-2.0991,0.5545,9.5633,-0.9641,1.3654,-0.5986,0.0626,0.2614,-0.608,2064,23.08,19.14,-17.72,316.75,-3.31,11.25,2,66.712,12.92528,77.689224,0,2909.56913139105,0,2258.0613,0,3 / 26,251015,2018-08-07 17:03:56:228
-2.8859,0.0793,5.4049,-2.0639,0.5845,9.5692,0.9922,-3.2765,0.868,-0.1258,-0.3202,0.4837,2432,14.25,20.32,-12.95,332.36,-3.42,12.17,2,65.664,12.92528,77.689224,0,2909.56913139105,0,2258.0613,0,3 / 26,251515,2018-08-07 17:03:56:728
-1.7924,-0.2003,13.562,-1.9417,-0.0296,9.6125,0.2705,-0.1944,3.4209,-1.1501,0.4003,1.0663,2208,25.08,23.65,-7.19,316.45,-3.04,10.26,2,63.922,12.92528,77.689224,0,2909.56913139105,0,2258.0613,0,3 / 26,252015,2018-08-07 17:03:57:228
-2.1407,0.1703,8.9579,-1.8407,-0.2381,9.6294,-0.2406,0.625,-1.661,-0.0944,0.0344,0.064,1832,25.21,18.01,-4.97,306.95,1.39,10.82,2,65.707,12.92528,77.689224,0,2909.56913139105,0,2258.0613,0,3 / 26,252515,2018-08-07 17:03:57:728
-1.3961,0.3726,6.2794,-1.9631,-0.5118,9.5945,1.9229,-0.011,-4.6916,0.272,0.0028,-0.2721,1796,26.75,20.34,-7.13,307.45,3.69,11.71,2,64.02,12.92528,77.689224,0,2909.56913139105,0,2258.0613,0,3 / 26,253015,2018-08-07 17:03:58:228
-0.4803,-2.8949,15.4253,-2.4573,-1.6859,9.3429,1.4146,-0.2594,4.5489,-0.8598,1.1994,-1.0344,1492,16.77,23.81,-7.67,326.27,6.29,11.25,2,64.591,12.92528,77.689224,0,2909.56913139105,0,2258.0613,0,3 / 26,253515,2018-08-07 17:03:58:728
-2.1682,-2.0037,8.1367,-1.9647,-1.4824,9.4928,1.144,-2.4755,1.239,0.3278,0.7042,0.192,1428,14.14,25.48,-10.21,331.65,9.69,9.34,2,63.579,12.92528,77.689224,0,2909.56913139105,0,2258.0613,0,3 / 26,254015,2018-08-07 17:03:59:228
-3.1271,-0.8593,9.2476,-1.8003,-0.7746,9.6088,-0.8082,-0.7352,0.4962,0.4612,-0.1837,-0.2502,1640,12.62,25.79,-17.36,338.44,4.53,10.61,2,66.022,12.92528,77.689224,0,2909.56913139105,0,2258.0613,0,3 / 26,254515,2018-08-07 17:03:59:728
-2.0324,-1.0963,10.1143,-1.4271,-1.3311,9.6105,-0.1181,0.1471,0.3327,-0.1965,-0.7765,0.2964,1360,13.46,24.12,-16.71,335.95,7.33,10.96,2,65.285,12.92528,77.689224,0,2909.56913139105,0,2258.0613,0,3 / 26,255015,2018-08-07 17:04:00:228
-0.0069,-1.4434,8.9897,-1.551,-1.96,9.4828,2.3322,-0.0715,0.9373,-0.2403,-0.2705,0.2542,1572,21,27.61,-15.04,322.44,11.53,9.29,2,67.08,12.92528,77.689224,0,2909.56913139105,0,2258.0613,0,3 / 26,255515,2018-08-07 17:04:00:728
0.2948,-3.4498,10.841,-0.8979,-1.2646,9.6832,2.8135,-0.1969,5.0465,-0.3376,0.8461,-0.8035,1820,13.55,37.52,-23.01,341.13,7.41,5.3,2,63.325,12.92528,77.689224,0,2909.56913139105,0,2258.0613,0,3 / 26,256015,2018-08-07 17:04:01:228
2.1976,-2.9662,14.5059,1.8781,-1.6551,9.4818,0.0334,-0.9978,5.1058,-0.6503,-1.7588,1.4719,2020,7.93,38.32,-23.75,343.4,6.73,-5.95,2,63.572,12.92528,77.689224,0,2909.56913139105,0,2258.0613,0,3 / 26,256515,2018-08-07 17:04:01:728
0.4019,-0.9903,9.4805,1.1802,-0.1573,9.7341,-0.7695,-0.8072,-0.3042,-0.1457,0.0988,-0.6566,2572,26.26,38.75,-34.52,322.04,0.92,-6.91,2,62.803,12.92528,77.689224,0,2909.56913139105,0,2258.0613,0,3 / 26,257016,2018-08-07 17:04:02:229
-0.4361,-0.7084,7.0013,-0.0701,-0.9275,9.7624,0.6535,-0.7694,-1.0261,0.6584,0.5638,-0.345,2052,26.32,38.83,-25.85,323,7.61,-1.33,2,63.628,12.92528,77.689224,0,2909.56913139105,0,2258.0613,0,3 / 26,257515,2018-08-07 17:04:02:728
2.0701,-2.0216,7.124,1.1179,-1.4496,9.6343,0.1614,-0.2,-1.7641,0.5959,-0.3949,0.7312,1960,33.09,36.87,-24.15,312.93,10.22,-5.66,2,62.834,12.92528,77.689224,0,2909.56913139105,0,2258.0613,0,3 / 26,258015,2018-08-07 17:04:03:228
5.3789,-6.1768,14.7669,1.1121,-1.7938,9.5769,2.7668,-2.7637,2.8305,-0.9026,0.3797,1.0142,1852,33.37,36.4,-25.07,312.66,6.8,-8.15,2,62.039,12.92528,77.689224,0,2909.56913139105,0,2258.0613,0,3 / 26,258515,2018-08-07 17:04:03:728
-0.7245,-1.2082,6.4931,-0.6136,-0.6775,9.764,2.5645,-2.7239,2.3922,0.5061,0.3145,0.2636,1124,28.6,36.26,-27.02,321.23,3.96,3.6,2,55.927,12.92528,77.689224,0,2909.56913139105,0,2258.0613,0,3 / 26,259015,2018-08-07 17:04:04:228
-7.1536,1.7205,9.6912,-2.9845,-0.3035,9.3365,-2.6783,0.9462,0.2554,-0.1361,0.0608,-0.2523,564,28.33,36.71,-25.48,332.02,1.16,17.29,2,59.415,12.92528,77.689224,0,2909.56913139105,0,2258.0613,0,3 / 26,259515,2018-08-07 17:04:04:728
-3.0703,-0.3738,9.022,-1.9041,-1.0035,9.5676,-1.0641,0.7787,-1.0937,-0.1427,0.5189,0.0219,712,25.48,40.31,-25.57,332.07,5.87,11.26,2,59.377,12.92528,77.689224,0,2909.56913139105,0,2258.0613,0,3 / 26,260016,2018-08-07 17:04:05:229
-2.9978,-1.4285,8.3402,-2.2532,-1.0419,9.4873,0.0988,0.0713,-2.1647,0.1787,0.3589,-0.2983,668,22.18,39.15,-25.63,336.58,6.1,13.36,2,59.718,12.92528,77.689224,0,2909.56913139105,0,2258.0613,0,4 / 26,260515,2018-08-07 17:04:05:728
-0.3534,-1.8684,9.4841,-0.8512,-1.2644,9.6875,0.4077,-0.5083,-0.2337,-0.2276,-0.3683,0.3108,1260,19.59,41.79,-26.94,336.12,6.68,6.18,2,63.596,12.92528,77.689224,0,2909.56913139105,0,2258.0613,0,4 / 26,261015,2018-08-07 17:04:06:228
-0.7527,-2.8171,10.328,-0.9155,-1.6453,9.6242,0.0049,-1.4125,2.5091,-0.2945,-0.0619,0.115,1396,20.83,43.34,-26,333.94,9.66,5.43,2,64.545,12.92528,77.689224,0,2909.56913139105,0,2258.0613,0,5 / 26,261515,2018-08-07 17:04:06:728
-3.849,-2.4664,9.4128,-2.4284,-2.19,9.2454,-0.855,-0.6268,0.7066,-0.1658,0.2767,0.0308,1072,28.55,43.07,-23.05,327.54,12.34,13.65,2,65.74,12.92528,77.689224,0,2909.56913139105,0,2258.0613,0,5 / 26,262016,2018-08-07 17:04:07:229
